#Wave		#Intensity
1800.529297	11241.245117
1798.058594	11203.949219
1795.587891	11287.273438
1793.115234	11348.383789
1790.642578	11249.327148
1788.169922	11275.171875
1785.697266	11386.551758
1783.222656	11287.568359
1780.746094	11276.154297
1778.269531	11207.427734
1775.792969	11271.439453
1773.316406	11215.817383
1770.837891	11417.429688
1768.357422	11378.868164
1765.878906	11425.676758
1763.398438	11376.090820
1760.916016	11461.001953
1758.435547	11469.618164
1755.951172	11458.168945
1753.468750	11528.939453
1750.984375	11627.729492
1748.498047	11545.096680
1746.013672	11633.802734
1743.527344	11731.466797
1741.039063	11732.964844
1738.550781	11741.465820
1736.062500	11774.973633
1733.574219	11701.436523
1731.083984	11773.928711
1728.591797	11830.381836
1726.099609	11735.904297
1723.607422	11821.302734
1721.115234	11804.780273
1718.621094	11806.238281
1716.126953	11904.509766
1713.630859	11906.930664
1711.134766	11857.477539
1708.636719	11983.562500
1706.140625	11974.986328
1703.640625	11941.498047
1701.142578	12093.343750
1698.642578	12050.873047
1696.140625	12017.386719
1693.640625	12054.594727
1691.138672	11957.435547
1688.634766	11983.692383
1686.130859	11948.270508
1683.626953	12175.345703
1681.121094	12067.327148
1678.615234	12250.505859
1676.109375	12243.846680
1673.601563	12453.670898
1671.093750	12550.196289
1668.583984	12619.865234
1666.074219	12857.162109
1663.564453	13380.957031
1661.052734	14024.413086
1658.541016	14951.966797
1656.027344	16205.974609
1653.513672	17794.064453
1651.000000	19027.640625
1648.484375	19457.539063
1645.968750	18604.449219
1643.453125	17342.236328
1640.935547	16217.284180
1638.417969	15073.229492
1635.898438	14288.710938
1633.378906	13887.123047
1630.859375	13450.207031
1628.337891	13337.508789
1625.816406	13213.028320
1623.292969	13173.509766
1620.769531	13301.764648
1618.246094	13413.169922
1615.720703	13716.811523
1613.195313	13824.077148
1610.669922	14159.931641
1608.142578	14271.920898
1605.613281	14374.975586
1603.085938	14644.378906
1600.556641	15279.813477
1598.025391	15257.483398
1595.494141	15074.803711
1592.962891	14569.643555
1590.429688	14233.897461
1587.896484	14432.073242
1585.363281	14870.867188
1582.828125	15405.660156
1580.292969	16404.621094
1577.755859	17396.103516
1575.218750	17560.625000
1572.681641	17444.441406
1570.142578	17231.222656
1567.603516	16790.648438
1565.062500	16158.209961
1562.521484	15870.111328
1559.980469	15540.061523
1557.437500	15134.798828
1554.894531	15027.410156
1552.349609	14883.870117
1549.804688	15054.499023
1547.259766	15250.454102
1544.712891	15560.698242
1542.166016	15834.581055
1539.619141	16233.385742
1537.070313	16577.234375
1534.519531	16355.378906
1531.970703	16216.647461
1529.417969	16122.897461
1526.867188	16104.336914
1524.314453	16194.064453
1521.761719	16444.640625
1519.207031	16879.318359
1516.652344	17833.189453
1514.095703	18938.466797
1511.539063	19607.689453
1508.982422	20077.867188
1506.423828	19680.443359
1503.865234	18611.808594
1501.306641	17769.517578
1498.746094	16843.125000
1496.185547	16058.267578
1493.623047	15680.153320
1491.060547	15213.847656
1488.496094	15144.130859
1485.931641	14672.441406
1483.367188	14360.240234
1480.800781	14165.651367
1478.234375	14220.508789
1475.667969	14209.379883
1473.099609	14237.038086
1470.531250	14409.097656
1467.960938	14213.810547
1465.390625	14394.485352
1462.818359	14079.238281
1460.246094	14093.329102
1457.673828	14337.742188
1455.099609	14403.986328
1452.525391	14381.205078
1449.951172	14419.349609
1447.375000	14383.041016
1444.796875	14487.832031
1442.220703	14468.908203
1439.642578	14192.147461
1437.062500	14326.822266
1434.482422	14284.793945
1431.902344	14343.131836
1429.320313	14485.346680
1426.738281	14592.758789
1424.154297	14569.006836
1421.570313	14864.233398
1418.986328	14832.701172
1416.400391	14831.040039
1413.814453	14531.885742
1411.226563	14312.796875
1408.638672	14286.273438
1406.050781	14519.469727
1403.460938	14632.323242
1400.871094	14752.795898
1398.279297	14958.719727
1395.687500	14893.598633
1393.095703	15172.337891
1390.501953	15316.489258
1387.908203	15565.167969
1385.312500	15711.982422
1382.716797	15910.502930
1380.119141	16122.322266
1377.521484	16041.628906
1374.923828	16860.853516
1372.324219	17726.515625
1369.724609	19437.324219
1367.125000	21382.609375
1364.523438	23153.445313
1361.919922	23740.515625
1359.318359	22453.320313
1356.712891	20998.613281
1354.109375	19779.011719
1351.503906	18459.812500
1348.896484	17369.759766
1346.291016	16592.689453
1343.681641	15900.119141
1341.074219	15583.088867
1338.464844	15418.924805
1335.853516	15197.624023
1333.242188	15262.541992
1330.630859	15218.738281
1328.017578	15304.570313
1325.404297	15741.903320
1322.789063	16455.167969
1320.173828	16978.513672
1317.558594	17285.464844
1314.941406	17725.439453
1312.324219	18056.695313
1309.705078	17941.744141
1307.085938	17554.019531
1304.466797	16939.394531
1301.845703	16508.511719
1299.224609	16094.038086
1296.601563	15771.919922
1293.978516	15630.345703
1291.353516	15776.372070
1288.728516	15798.039063
1286.103516	15825.378906
1283.476563	15737.041992
1280.849609	15751.110352
1278.220703	15977.390625
1275.591797	15907.076172
1272.962891	15741.171875
1270.332031	15638.786133
1267.701172	15438.997070
1265.068359	15341.494141
1262.435547	15321.591797
1259.800781	15131.534180
1257.166016	14934.976563
1254.531250	14841.519531
1251.894531	14673.503906
1249.257813	14793.568359
1246.619141	14714.393555
1243.980469	14694.712891
1241.341797	14536.375000
1238.701172	14712.903320
1236.058594	14694.175781
1233.417969	14692.421875
1230.775391	14845.174805
1228.130859	14938.495117
1225.486328	15247.368164
1222.839844	15044.947266
1220.195313	15183.275391
1217.546875	15144.670898
1214.900391	15450.262695
1212.250000	15679.514648
1209.601563	15737.580078
1206.951172	15886.737305
1204.298828	16074.305664
1201.648438	16411.976563
1198.994141	16612.398438
1196.341797	17088.556641
1193.685547	17177.949219
1191.031250	17381.683594
1188.375000	17444.675781
1185.718750	17636.949219
1183.060547	17783.193359
1180.400391	17876.894531
1177.742188	17389.119141
1175.082031	16704.158203
1172.419922	16271.319336
1169.757813	15904.225586
1167.095703	15573.827148
1164.431641	15478.265625
1161.767578	15183.713867
1159.101563	15004.250977
1156.435547	15049.037109
1153.767578	14957.484375
1151.101563	14988.250977
1148.431641	14999.403320
1145.761719	14838.921875
1143.091797	15173.666016
1140.419922	15159.573242
1137.748047	15414.792969
1135.076172	15587.872070
1132.402344	15973.169922
1129.726563	16469.939453
1127.052734	16722.552734
1124.375000	16469.802734
1121.699219	16162.333008
1119.019531	15757.423828
1116.341797	15650.210938
1113.662109	15302.395508
1110.982422	15339.372070
1108.300781	15272.316406
1105.617188	14979.712891
1102.935547	15051.085938
1100.251953	15370.122070
1097.566406	15336.518555
1094.880859	15442.008789
1092.193359	15733.732422
1089.507813	15920.564453
1086.818359	15779.368164
1084.128906	15672.521484
1081.439453	15678.674805
1078.750000	15620.042969
1076.058594	15665.058594
1073.365234	15389.127930
1070.671875	15374.087891
1067.978516	15319.311523
1065.283203	15455.826172
1062.587891	15302.221680
1059.890625	15361.086914
1057.193359	15247.296875
1054.494141	15307.059570
1051.794922	15302.207031
1049.095703	15242.023438
1046.394531	15364.411133
1043.693359	15285.808594
1040.990234	15232.127930
1038.287109	15281.633789
1035.582031	15425.940430
1032.876953	15303.225586
1030.169922	15172.304688
1027.462891	15409.406250
1024.755859	15427.498047
1022.046875	15275.511719
1019.337891	15332.225586
1016.626953	15658.077148
1013.916016	15570.440430
1011.203125	15750.943359
1008.490234	15673.422852
1005.777344	15555.579102
1003.062500	15705.636719
1000.347656	15501.661133
997.630859	15544.387695
994.914063	15331.423828
992.195313	15337.529297
989.476563	15400.406250
986.755859	15473.310547
984.035156	15420.786133
981.314453	15355.483398
978.591797	15408.203125
975.867188	15598.032227
973.142578	15657.947266
970.417969	15504.009766
967.691406	15511.845703
964.964844	15599.116211
962.238281	15682.676758
959.509766	15712.340820
956.779297	15618.828125
954.048828	15653.959961
951.318359	15705.475586
948.585938	15731.437500
945.853516	15749.180664
943.119141	15694.955078
940.384766	15866.569336
937.648438	16188.255859
934.912109	16561.599609
932.175781	16891.949219
929.437500	16867.439453
926.697266	16800.214844
923.957031	16911.150391
921.216797	16676.791016
918.474609	16536.121094
915.732422	16178.554688
912.988281	16169.731445
910.244141	16105.565430
907.500000	15948.014648
904.753906	16100.662109
902.005859	16103.646484
899.257813	16115.688477
896.509766	15962.854492
893.759766	15918.783203
891.009766	15968.884766
888.257813	16080.489258
885.505859	15966.753906
882.751953	15891.976563
879.998047	15982.695313
877.242188	15902.533203
874.486328	15835.971680
871.730469	15920.290039
868.972656	15860.081055
866.214844	15983.144531
863.455078	15913.924805
860.693359	16009.825195
857.933594	16025.402344
855.169922	16107.675781
852.408203	16165.561523
849.644531	16118.000977
846.878906	16089.381836
844.113281	16141.806641
841.347656	16122.192383
838.580078	16185.364258
835.810547	16290.765625
833.041016	16158.718750
830.271484	16240.684570
827.500000	16260.592773
824.728516	16179.876953
821.955078	16250.971680
819.181641	16117.341797
816.408203	16253.018555
813.630859	16141.895508
810.855469	16267.605469
808.078125	16149.372070
805.298828	16339.522461
802.521484	16328.851563
799.740234	16382.671875
796.958984	16576.134766
794.177734	16606.562500
791.394531	16813.242188
788.611328	17139.650391
785.826172	17479.253906
783.041016	18219.115234
780.255859	19864.640625
777.466797	21771.736328
774.679688	24442.044922
771.890625	24561.769531
769.099609	22460.931641
766.308594	20107.181641
763.517578	18111.718750
760.724609	17030.552734
757.931641	16859.228516
755.136719	16543.666016
752.341797	16341.428711
749.544922	16281.791992
746.748047	16295.184570
743.949219	16444.714844
741.150391	16272.117188
738.349609	16299.718750
735.548828	16150.389648
732.748047	16157.566406
729.945313	16137.195313
727.140625	16339.753906
724.335938	16190.594727
721.531250	16171.999023
718.724609	16242.137695
715.917969	16196.922852
713.109375	16152.620117
710.300781	16310.441406
707.490234	16465.498047
704.679688	16588.560547
701.867188	16295.344727
699.054688	16214.773438
696.240234	16075.845703
693.425781	15936.122070
690.611328	15997.236328
687.794922	16018.524414
684.976563	16025.656250
682.158203	16146.750000
679.339844	16142.346680
676.519531	16269.498047
673.697266	16314.479492
670.875000	16331.192383
668.052734	16383.173828
665.228516	16556.800781
662.404297	16603.380859
659.578125	16582.955078
656.751953	16223.398438
653.923828	16060.448242
651.095703	16137.927734
648.265625	16128.230469
645.435547	16271.612305
642.603516	16533.621094
639.771484	16775.234375
636.939453	16682.716797
634.105469	16353.916992
631.269531	16155.317383
628.433594	16199.175781
625.595703	16495.783203
622.757813	16682.515625
619.919922	17819.939453
617.080078	22568.353516
614.240234	29456.832031
611.398438	26697.394531
608.554688	21589.501953
605.712891	19552.529297
602.867188	18148.064453
600.021484	16994.806641
597.175781	16376.824219
594.328125	16157.164063
591.480469	16168.449219
588.630859	16157.000000
585.781250	16196.228516
582.931641	16094.813477
580.078125	15999.573242
577.226563	16041.425781
574.373047	15966.329102
571.517578	15708.108398
568.662109	15887.774414
565.804688	15663.740234
562.947266	15670.764648
560.089844	15730.046875
557.230469	15931.226563
554.369141	15913.773438
551.507813	15942.450195
548.646484	15752.751953
