#Wave		#Intensity
1800.601563	597.504578
1798.948242	426.735077
1797.295898	417.987152
1795.641602	449.150452
1793.988281	-204.652313
1792.333984	-258.788879
1790.678711	-284.882355
1789.023438	271.447693
1787.368164	-168.632767
1785.711914	-447.281738
1784.055664	-327.571136
1782.398438	-525.625793
1780.741211	181.472519
1779.083984	129.948151
1777.425781	444.974304
1775.767578	449.059296
1774.108398	227.984085
1772.449219	841.343323
1770.789063	687.935120
1769.128906	1080.841431
1767.468750	721.370850
1765.807617	1214.459106
1764.145508	1300.933960
1762.484375	1520.871338
1760.821289	1350.499023
1759.159180	1749.018066
1757.496094	1932.142578
1755.832031	2116.256592
1754.167969	1739.387085
1752.503906	2442.420410
1750.838867	2295.954834
1749.173828	2784.824463
1747.508789	3266.648438
1745.842773	2727.606934
1744.175781	3061.098633
1742.508789	2802.080322
1740.841797	2376.226074
1739.173828	2701.510498
1737.505859	3184.451904
1735.836914	3687.330078
1734.167969	3232.659180
1732.499023	3225.998291
1730.829102	3417.748779
1729.159180	3367.835693
1727.488281	3532.340820
1725.817383	4015.329834
1724.145508	3468.286865
1722.473633	3504.881592
1720.800781	3444.152344
1719.128906	3921.923096
1717.455078	3351.162842
1715.781250	4135.660156
1714.107422	3519.753662
1712.433594	3278.628418
1710.757813	3639.325439
1709.083008	3253.780273
1707.407227	2908.499512
1705.731445	2862.204590
1704.054688	2682.515869
1702.376953	2423.150879
1700.700195	2930.760986
1699.022461	2275.434326
1697.343750	1784.629639
1695.665039	2501.373779
1693.986328	2018.208862
1692.306641	2066.235840
1690.626953	1139.610596
1688.946289	1328.464722
1687.265625	1334.674194
1685.583984	1213.273804
1683.902344	1321.653076
1682.219727	1403.647217
1680.538086	580.908630
1678.854492	681.022705
1677.170898	437.833344
1675.487305	-392.091431
1673.803711	17.849691
1672.118164	-220.885300
1670.433594	-50.302200
1668.748047	-111.981659
1667.061523	21.379013
1665.375977	-26.104534
1663.688477	93.694916
1662.001953	948.354980
1660.313477	1527.748779
1658.625977	2249.063721
1656.937500	3470.367676
1655.248047	6034.882813
1653.558594	7526.380371
1651.869141	8934.737305
1650.178711	9769.500000
1648.488281	10960.990234
1646.796875	10631.645508
1645.105469	9371.983398
1643.414063	8013.019043
1641.721680	5998.727051
1640.028320	6006.958984
1638.334961	4783.840332
1636.641602	2980.407227
1634.947266	3007.595703
1633.252930	2385.583984
1631.557617	868.104675
1629.862305	640.237854
1628.166992	284.344788
1626.470703	122.005676
1624.773438	-565.791443
1623.076172	190.770096
1621.378906	29.254822
1619.680664	956.438354
1617.982422	1020.605164
1616.283203	1443.320313
1614.583984	3032.101074
1612.884766	3619.629150
1611.184570	4183.489258
1609.483398	4819.077148
1607.783203	5077.520508
1606.081055	5765.035156
1604.379883	5063.459473
1602.676758	5405.882324
1600.974609	5588.756836
1599.271484	5481.841309
1597.567383	5256.517578
1595.863281	4775.831055
1594.159180	3474.765869
1592.454102	1778.879395
1590.748047	955.950012
1589.042969	170.793167
1587.336914	-4.797546
1585.629883	417.140564
1583.922852	602.089172
1582.214844	175.387238
1580.506836	948.378601
1578.798828	1567.660645
1577.089844	2420.878418
1575.380859	2186.790039
1573.670898	1244.802246
1571.959961	1968.758301
1570.250000	656.042419
1568.539063	227.219421
1566.827148	303.373016
1565.115234	-120.798851
1563.403320	-681.369385
1561.690430	-305.474030
1559.976563	-576.527954
1558.262695	-556.762756
1556.548828	280.890808
1554.833984	-145.371002
1553.119141	362.192017
1551.404297	795.477783
1549.687500	713.246582
1547.971680	1137.403076
1546.254883	2132.647705
1544.537109	2276.051270
1542.820313	1946.687134
1541.101563	2640.361328
1539.382813	2823.407471
1537.664063	2955.328369
1535.944336	2934.705811
1534.224609	2476.404785
1532.504883	2764.674316
1530.784180	1919.143188
1529.062500	1597.033447
1527.340820	1353.883423
1525.619141	1665.240601
1523.896484	449.000854
1522.173828	1447.814575
1520.450195	2278.843994
1518.726563	3938.773682
1517.001953	6296.899902
1515.277344	7477.246094
1513.551758	10101.672852
1511.826172	11099.809570
1510.099609	12006.275391
1508.374023	12639.277344
1506.646484	12435.209961
1504.918945	12096.554688
1503.191406	11473.420898
1501.462891	9358.635742
1499.734375	8187.364258
1498.004883	5739.795898
1496.275391	4623.867676
1494.544922	2765.990234
1492.814453	1654.336182
1491.083984	1947.013062
1489.352539	766.645813
1487.620117	-77.082794
1485.887695	980.674194
1484.155273	-154.244263
1482.421875	155.870239
1480.688477	174.716217
1478.954102	1134.426758
1477.219727	987.055481
1475.484375	386.363281
1473.749023	318.196869
1472.012695	126.546814
1470.276367	470.967651
1468.540039	740.164490
1466.802734	220.351242
1465.064453	35.424812
1463.327148	204.886093
1461.587891	147.090912
1459.848633	-380.030182
1458.109375	-594.706360
1456.369141	-14.956643
1454.628906	-929.270813
1452.888672	-182.781601
1451.146484	-503.651459
1449.405273	78.529442
1447.663086	3.827736
1445.919922	648.600891
1444.176758	76.526260
1442.433594	476.236359
1440.689453	893.234070
1438.945313	1304.465942
1437.200195	910.773865
1435.454102	1584.390137
1433.708984	1691.155029
1431.961914	1354.261475
1430.215820	1728.357300
1428.468750	1927.918213
1426.720703	1554.051636
1424.972656	2307.726807
1423.223633	3231.085938
1421.474609	3425.517334
1419.725586	4169.566895
1417.975586	4776.952148
1416.224609	6041.432617
1414.474609	5554.559082
1412.722656	6044.802246
1410.970703	6143.750977
1409.218750	7669.135742
1407.465820	7377.853516
1405.712891	7529.451660
1403.958984	6974.829102
1402.205078	7867.867188
1400.451172	7361.879883
1398.695313	8497.122070
1396.940430	8588.334961
1395.184570	8726.894531
1393.427734	9004.845703
1391.670898	8558.771484
1389.914063	9462.218750
1388.156250	9923.534180
1386.398438	9923.125000
1384.639648	11161.785156
1382.879883	11632.738281
1381.121094	11656.252930
1379.360352	12070.302734
1377.600586	13249.195313
1375.838867	14738.534180
1374.078125	16304.638672
1372.316406	17755.294922
1370.553711	21509.421875
1368.791016	24114.341797
1367.027344	27460.404297
1365.263672	31435.455078
1363.500000	34242.195313
1361.735352	35895.679688
1359.969727	35932.679688
1358.204102	35266.847656
1356.438477	33623.820313
1354.671875	32633.810547
1352.905273	31036.439453
1351.137695	29800.091797
1349.370117	28694.830078
1347.601563	27851.533203
1345.833008	26284.570313
1344.063477	25392.005859
1342.293945	25499.736328
1340.523438	24042.707031
1338.752930	23034.478516
1336.981445	21070.242188
1335.209961	21724.970703
1333.437500	22149.783203
1331.665039	21607.373047
1329.892578	21757.107422
1328.119141	21820.623047
1326.344727	22854.962891
1324.570313	23712.882813
1322.795898	24143.421875
1321.020508	24869.246094
1319.244141	25623.728516
1317.468750	25759.250000
1315.691406	25804.642578
1313.914063	26107.496094
1312.136719	25444.814453
1310.358398	24792.015625
1308.580078	24630.736328
1306.800781	23562.388672
1305.021484	22213.212891
1303.241211	21091.234375
1301.460938	20427.087891
1299.679688	19799.583984
1297.898438	18472.150391
1296.116211	17863.705078
1294.333984	17047.531250
1292.551758	16199.811523
1290.768555	16017.337891
1288.984375	15731.870117
1287.200195	15363.114258
1285.415039	14867.894531
1283.629883	14539.313477
1281.844727	14416.347656
1280.058594	13850.578125
1278.271484	13935.096680
1276.484375	13248.265625
1274.697266	13862.110352
1272.909180	13104.584961
1271.121094	11930.572266
1269.332031	12110.869141
1267.541992	11971.860352
1265.751953	11705.902344
1263.961914	10830.556641
1262.170898	11162.156250
1260.379883	10580.085938
1258.587891	10356.598633
1256.795898	10648.526367
1255.002930	10222.090820
1253.209961	10526.257813
1251.416016	9646.123047
1249.622070	9768.577148
1247.827148	9816.159180
1246.032227	9447.831055
1244.236328	9335.093750
1242.440430	9303.180664
1240.643555	7971.600586
1238.846680	9358.402344
1237.048828	8869.325195
1235.250977	9009.857422
1233.453125	9890.310547
1231.654297	8168.790527
1229.854492	8553.625000
1228.054688	8021.918457
1226.253906	7761.039551
1224.453125	8498.170898
1222.652344	7864.715820
1220.849609	8300.789063
1219.047852	8421.477539
1217.245117	7559.833008
1215.441406	8503.215820
1213.637695	8797.221680
1211.833984	9168.367188
1210.029297	10114.657227
1208.223633	11744.647461
1206.417969	12623.772461
1204.612305	14896.446289
1202.805664	16521.716797
1200.998047	17947.974609
1199.190430	19427.570313
1197.382813	19839.515625
1195.574219	21076.357422
1193.764648	21306.841797
1191.955078	22978.511719
1190.145508	22842.269531
1188.334961	22405.517578
1186.524414	21074.617188
1184.712891	20740.326172
1182.900391	19759.708984
1181.087891	17446.458984
1179.275391	16791.748047
1177.461914	15637.078125
1175.648438	14069.424805
1173.833984	12701.187500
1172.018555	11237.247070
1170.203125	9413.065430
1168.387695	9181.661133
1166.571289	8404.477539
1164.754883	7077.932129
1162.937500	5386.047363
1161.119141	5508.524902
1159.300781	4611.979492
1157.482422	4134.782227
1155.663086	4106.678223
1153.843750	3624.292236
1152.023438	2969.752197
1150.203125	2884.522949
1148.381836	2342.691895
1146.559570	2621.296387
1144.737305	2664.817871
1142.915039	2708.421143
1141.091797	2838.130127
1139.268555	2778.131348
1137.444336	1915.627441
1135.619141	2074.499756
1133.793945	2304.420654
1131.968750	2302.547363
1130.142578	2390.839355
1128.316406	2792.829834
1126.489258	2652.383789
1124.661133	1311.859131
1122.833984	1873.836426
1121.004883	1418.455322
1119.175781	1366.527344
1117.346680	853.489441
1115.516602	539.587402
1113.685547	-1.093035
1111.854492	609.244629
1110.023438	-81.599922
1108.191406	-179.264648
1106.359375	285.908173
1104.526367	285.077118
1102.692383	-484.248810
1100.858398	-45.933250
1099.024414	-475.003052
1097.189453	367.824768
1095.353516	287.836395
1093.517578	312.496857
1091.681641	570.509888
1089.844727	954.564331
1088.006836	1055.286377
1086.168945	1073.423218
1084.331055	1067.260986
1082.492188	304.238495
1080.652344	566.408142
1078.812500	399.479492
1076.971680	238.047348
1075.130859	682.662048
1073.290039	257.527222
1071.448242	584.206421
1069.605469	-161.119385
1067.762695	453.118073
1065.918945	255.076324
1064.075195	43.500774
1062.230469	-43.935234
1060.385742	259.894135
1058.541016	185.539444
1056.694336	283.634003
1054.848633	285.655304
1053.000977	59.525223
1051.154297	67.724762
1049.305664	-323.298157
1047.458008	60.105373
1045.608398	-485.028259
1043.759766	-287.100708
1041.909180	-427.596558
1040.058594	-93.503517
1038.208008	-182.540131
1036.356445	-693.045959
1034.504883	-764.188354
1032.652344	-761.986023
1030.799805	-476.880737
1028.946289	-157.687454
1027.091797	-387.350677
1025.237305	-727.735291
1023.382813	386.424133
1021.527344	-285.685974
1019.670898	-319.635101
1017.814453	1027.070313
1015.958008	635.696045
1014.100586	444.688019
1012.242188	189.852112
1010.383789	224.908127
1008.525391	672.833740
1006.666016	595.888977
1004.805664	228.763412
1002.945313	129.755386
1001.083984	-13.139451
999.222656	-429.981781
997.360352	435.990692
995.498047	40.936539
993.634766	557.712769
991.771484	-382.122803
989.907227	133.279984
988.042969	42.143803
986.177734	155.319885
984.312500	-67.929008
982.446289	378.725952
980.579102	540.940674
978.711914	140.182770
976.844727	1218.086060
974.976563	583.856384
973.107422	622.730286
971.238281	473.560791
969.369141	880.960815
967.499023	580.935486
965.627930	1132.708130
963.756836	331.939636
961.884766	825.738342
960.012695	709.852722
958.139648	173.564163
956.266602	938.568237
954.393555	1156.655518
952.518555	1464.600830
950.643555	1328.415161
948.768555	1862.453613
946.892578	943.626282
945.016602	1156.868530
943.139648	1868.411621
941.262695	1441.169800
939.384766	1719.140991
937.505859	1780.450195
935.626953	1529.858276
933.747070	2020.872681
931.867188	1329.709351
929.987305	1329.668945
928.106445	1047.205933
926.224609	1236.879761
924.342773	779.011658
922.459961	470.393921
920.577148	1292.052979
918.693359	847.680420
916.809570	547.132813
914.924805	406.149689
913.039063	638.576721
911.154297	546.903564
909.267578	271.306305
907.380859	-115.442604
905.494141	670.506042
903.606445	185.347580
901.717773	615.174011
899.829102	618.514221
897.939453	435.595978
896.049805	273.449768
894.159180	80.679169
892.268555	419.628662
890.376953	-408.417755
888.485352	-183.481384
886.592773	-6.410378
884.700195	63.665943
882.806641	247.759338
880.912109	109.319366
879.017578	45.546638
877.123047	-216.897110
875.227539	181.235214
873.331055	788.972839
871.434570	214.541718
869.537109	-134.076111
867.639648	123.455521
865.741211	-216.232697
863.842773	-454.952423
861.943359	-293.885223
860.043945	-551.178284
858.143555	-201.833328
856.242188	241.485367
854.340820	579.662415
852.439453	-543.552063
850.537109	-158.441193
848.633789	-510.325409
846.730469	-533.734070
844.826172	105.846321
842.921875	-55.098206
841.016602	-93.124802
839.111328	174.635071
837.205078	895.530090
835.298828	-178.329544
833.391602	520.123108
831.483398	867.120789
829.575195	556.342957
827.666992	699.779297
825.756836	1090.993774
823.847656	1182.238159
821.937500	860.349121
820.026367	422.791229
818.114258	1122.848877
816.203125	995.699158
814.290039	167.003922
812.376953	853.993713
810.463867	1326.075195
808.549805	1498.872314
806.634766	1591.110962
804.719727	1479.376709
802.803711	1384.799194
800.887695	1634.829346
798.970703	1816.064453
797.053711	1194.828369
795.135742	1246.677979
793.217773	1824.396240
791.298828	1733.734009
789.378906	1805.495728
787.458984	2337.828369
785.539063	2373.511475
783.617188	3294.644287
781.696289	3908.385498
779.773438	5356.224121
777.851563	6922.613281
775.927734	8743.361328
774.003906	10863.559570
772.080078	11154.348633
770.155273	10295.093750
768.229492	9321.370117
766.303711	7465.282715
764.377930	5345.388184
762.450195	4093.840576
760.523438	2880.565186
758.594727	1711.957520
756.666016	1680.231812
754.737305	610.823486
752.807617	-122.456169
750.876953	810.084229
748.946289	889.633179
747.015625	-262.151093
745.083008	-125.716576
743.151367	479.603027
741.217773	629.742737
739.284180	411.353607
737.350586	415.668030
735.416016	-69.291481
733.480469	-40.778549
731.544922	-287.791077
729.609375	285.557037
727.671875	233.450638
725.735352	-126.119804
723.796875	246.569412
721.858398	-337.052979
719.919922	-530.345215
717.980469	-254.087402
716.040039	56.197140
714.099609	36.047504
712.158203	-46.200302
710.216797	-343.131744
708.274414	4.377829
706.332031	417.712463
704.388672	42.137215
702.444336	392.386932
700.500000	565.003784
698.555664	182.427734
696.610352	-122.630394
694.664063	133.363251
692.716797	-138.627060
690.770508	141.122528
688.822266	-519.839783
686.874023	230.931198
684.925781	-69.922798
682.975586	697.549438
681.026367	412.673676
679.075195	212.474777
677.125000	872.870605
675.172852	-152.355286
673.220703	-297.903992
671.268555	328.331787
669.315430	225.217682
667.361328	44.622078
665.407227	329.371857
663.452148	1479.018677
661.497070	1273.356934
659.541016	1835.623047
657.583984	1470.012329
655.626953	785.494873
653.668945	282.206085
651.710938	-46.328903
649.751953	-182.452148
647.792969	-84.356194
645.833008	-247.703766
643.873047	-413.123077
641.912109	78.418892
639.950195	337.826660
637.988281	721.964355
636.025391	1520.027344
634.062500	-228.522903
632.098633	-242.097839
630.133789	366.195404
628.168945	-777.593262
626.203125	-718.818726
624.237305	-116.988365
622.271484	-220.894653
620.303711	158.702484
618.335938	329.365906
616.368164	2662.128906
614.399414	6983.255859
612.429688	15015.749023
610.459961	15905.237305
608.489258	10748.447266
606.518555	6448.217773
604.546875	4110.263184
602.574219	2546.282715
600.601563	1630.883301
598.627930	1214.767700
596.654297	1053.012085
594.679688	1568.074219
592.705078	1050.032104
590.729492	1026.326172
588.752930	478.677429
586.776367	738.003052
584.798828	667.981628
582.821289	1113.931274
580.842773	207.938248
578.864258	405.018402
576.884766	-25.028299
574.904297	1042.573120
572.923828	357.163025
570.942383	628.958069
568.960938	132.426300
566.978516	43.016804
564.995117	-358.739685
563.011719	-339.082275
561.027344	-404.952789
559.042969	870.630371
557.057617	318.687439
555.072266	1203.881348
553.085938	886.750122
551.098633	-330.429382
549.111328	229.601120
