#Wave		#Intensity
1800.529297	18.912142
1798.058594	3.222645
1795.587891	-18.065739
1793.115234	-1.128592
1790.642578	7.492883
1788.169922	-6.457762
1785.697266	15.261575
1783.222656	-0.975324
1780.746094	-34.140308
1778.269531	2.144171
1775.792969	78.554001
1773.316406	37.170601
1770.837891	-17.499296
1768.357422	104.308708
1765.878906	26.832693
1763.398438	-28.974707
1760.916016	23.113119
1758.435547	44.513439
1755.951172	-12.931152
1753.468750	27.280499
1750.984375	-4.360668
1748.498047	-41.681480
1746.013672	67.573380
1743.527344	22.830864
1741.039063	41.460732
1738.550781	21.325478
1736.062500	23.491951
1733.574219	47.945415
1731.083984	-9.324769
1728.591797	-12.288075
1726.099609	-8.939439
1723.607422	26.706625
1721.115234	77.662041
1718.621094	95.001266
1716.126953	78.786560
1713.630859	82.943367
1711.134766	38.661293
1708.636719	134.472870
1706.140625	161.948074
1703.640625	8.522795
1701.142578	70.961868
1698.642578	66.206314
1696.140625	50.107269
1693.640625	21.737431
1691.138672	43.805618
1688.634766	-12.035683
1686.130859	-21.354259
1683.626953	66.545158
1681.121094	-24.720907
1678.615234	21.029943
1676.109375	-26.748674
1673.601563	-18.008537
1671.093750	31.360443
1668.583984	9.190007
1666.074219	-36.788300
1663.564453	34.316376
1661.052734	3.279549
1658.541016	26.851772
1656.027344	41.574203
1653.513672	3.905816
1651.000000	3.049970
1648.484375	107.295525
1645.968750	66.176529
1643.453125	20.348089
1640.935547	74.672409
1638.417969	117.350807
1635.898438	167.181458
1633.378906	195.529327
1630.859375	223.177872
1628.337891	337.045074
1625.816406	316.896515
1623.292969	304.993530
1620.769531	312.208527
1618.246094	399.696991
1615.720703	442.141052
1613.195313	408.054230
1610.669922	435.496796
1608.142578	486.969391
1605.613281	422.589355
1603.085938	389.207397
1600.556641	340.514191
1598.025391	346.400116
1595.494141	382.233887
1592.962891	366.360291
1590.429688	365.677917
1587.896484	433.260498
1585.363281	507.141388
1582.828125	604.007813
1580.292969	630.553467
1577.755859	760.598938
1575.218750	650.557312
1572.681641	618.528320
1570.142578	601.659912
1567.603516	545.030701
1565.062500	459.450653
1562.521484	441.960297
1559.980469	380.813385
1557.437500	388.665527
1554.894531	321.532074
1552.349609	289.091949
1549.804688	255.107727
1547.259766	292.935822
1544.712891	245.065750
1542.166016	225.945770
1539.619141	309.814423
1537.070313	304.105408
1534.519531	279.213470
1531.970703	187.307510
1529.417969	88.955368
1526.867188	118.814583
1524.314453	73.857475
1521.761719	72.142075
1519.207031	98.022758
1516.652344	73.497696
1514.095703	179.824753
1511.539063	166.556076
1508.982422	162.321884
1506.423828	165.159790
1503.865234	102.069977
1501.306641	91.787849
1498.746094	2.968526
1496.185547	-26.270142
1493.623047	46.776608
1491.060547	61.685295
1488.496094	17.532614
1485.931641	80.410706
1483.367188	-0.238482
1480.800781	26.088230
1478.234375	8.908893
1475.667969	44.272255
1473.099609	2.205894
1470.531250	97.947609
1467.960938	25.174301
1465.390625	37.822971
1462.818359	-51.083359
1460.246094	-6.217294
1457.673828	44.545250
1455.099609	55.726334
1452.525391	75.712402
1449.951172	61.947620
1447.375000	43.460640
1444.796875	136.208542
1442.220703	200.005066
1439.642578	137.344650
1437.062500	120.184853
1434.482422	160.057617
1431.902344	149.811417
1429.320313	116.501213
1426.738281	79.426071
1424.154297	58.834633
1421.570313	116.378120
1418.986328	-2.341384
1416.400391	-6.316165
1413.814453	78.347214
1411.226563	12.880605
1408.638672	43.730728
1406.050781	45.764824
1403.460938	170.942978
1400.871094	218.238190
1398.279297	288.630737
1395.687500	327.334625
1393.095703	342.061890
1390.501953	265.633240
1387.908203	249.777100
1385.312500	352.973450
1382.716797	224.034592
1380.119141	195.926422
1377.521484	178.440125
1374.923828	92.983673
1372.324219	72.793297
1369.724609	75.663269
1367.125000	100.616219
1364.523438	99.780807
1361.919922	114.326630
1359.318359	112.662819
1356.712891	94.822998
1354.109375	97.132324
1351.503906	31.663300
1348.896484	45.608280
1346.291016	25.227734
1343.681641	38.363129
1341.074219	-8.574764
1338.464844	-34.409557
1335.853516	-21.035709
1333.242188	-0.917212
1330.630859	5.920331
1328.017578	43.336021
1325.404297	118.917000
1322.789063	212.634613
1320.173828	215.921906
1317.558594	184.070206
1314.941406	198.952347
1312.324219	135.904205
1309.705078	113.874893
1307.085938	58.667938
1304.466797	65.350945
1301.845703	73.068123
1299.224609	55.217152
1296.601563	8.980168
1293.978516	-0.129838
1291.353516	55.376694
1288.728516	31.243546
1286.103516	3.408873
1283.476563	66.683220
1280.849609	75.024086
1278.220703	-8.461099
1275.591797	55.928146
1272.962891	34.183136
1270.332031	6.845758
1267.701172	6.084123
1265.068359	9.175232
1262.435547	-5.644623
1259.800781	24.985537
1257.166016	86.836266
1254.531250	22.097694
1251.894531	94.403610
1249.257813	173.315994
1246.619141	132.351440
1243.980469	150.894073
1241.341797	228.884750
1238.701172	103.170959
1236.058594	168.938461
1233.417969	181.899261
1230.775391	132.693298
1228.130859	100.488335
1225.486328	115.385490
1222.839844	0.388540
1220.195313	33.180119
1217.546875	63.135025
1214.900391	97.749626
1212.250000	48.671417
1209.601563	40.000454
1206.951172	-25.057663
1204.298828	2.876084
1201.648438	17.597374
1198.994141	-38.117893
1196.341797	42.195538
1193.685547	113.034927
1191.031250	75.919228
1188.375000	98.759285
1185.718750	158.994827
1183.060547	113.254585
1180.400391	201.390198
1177.742188	183.572510
1175.082031	160.995026
1172.419922	99.972130
1169.757813	154.864334
1167.095703	147.891403
1164.431641	149.222580
1161.767578	151.361160
1159.101563	111.335022
1156.435547	90.809692
1153.767578	83.233459
1151.101563	-34.623077
1148.431641	20.999998
1145.761719	19.535543
1143.091797	53.344990
1140.419922	-1.579823
1137.748047	48.661560
1135.076172	67.025566
1132.402344	20.949480
1129.726563	33.379692
1127.052734	29.791470
1124.375000	2.769513
1121.699219	16.494089
1119.019531	11.431573
1116.341797	-10.559226
1113.662109	-51.313072
1110.982422	6.225556
1108.300781	108.105484
1105.617188	0.845416
1102.935547	-24.887169
1100.251953	9.499252
1097.566406	-20.333500
1094.880859	54.415710
1092.193359	51.056644
1089.507813	20.618055
1086.818359	25.197557
1084.128906	-6.546226
1081.439453	-31.069702
1078.750000	6.220809
1076.058594	50.688595
1073.365234	18.168678
1070.671875	-18.227970
1067.978516	45.019753
1065.283203	79.392647
1062.587891	17.492245
1059.890625	69.941734
1057.193359	62.173561
1054.494141	43.157166
1051.794922	75.635147
1049.095703	132.818802
1046.394531	155.688995
1043.693359	187.597168
1040.990234	126.274704
1038.287109	201.149750
1035.582031	195.726913
1032.876953	327.311279
1030.169922	236.001434
1027.462891	147.379761
1024.755859	131.337204
1022.046875	76.579689
1019.337891	90.671158
1016.626953	59.636147
1013.916016	82.711716
1011.203125	43.254158
1008.490234	72.577896
1005.777344	99.058723
1003.062500	104.362274
1000.347656	106.856010
997.630859	109.299950
994.914063	53.972988
992.195313	120.485100
989.476563	109.092178
986.755859	46.425541
984.035156	85.377678
981.314453	-1.031669
978.591797	25.120134
975.867188	4.645093
973.142578	-1.164413
970.417969	-13.329251
967.691406	9.268471
964.964844	-1.880629
962.238281	5.295844
959.509766	0.674424
956.779297	26.238316
954.048828	33.632290
951.318359	68.465561
948.585938	64.188049
945.853516	74.599579
943.119141	58.706963
940.384766	49.321171
937.648438	51.903820
934.912109	78.279366
932.175781	-18.930395
929.437500	33.203663
926.697266	51.824059
923.957031	42.420197
921.216797	44.997150
918.474609	-23.095627
915.732422	-8.353266
912.988281	-7.055696
910.244141	-0.134097
907.500000	53.225067
904.753906	-25.642960
902.005859	10.848134
899.257813	12.167607
896.509766	-44.294922
893.759766	-0.913505
891.009766	15.476780
888.257813	23.004427
885.505859	44.292274
882.751953	58.528103
879.998047	19.605753
877.242188	83.937187
874.486328	96.916008
871.730469	101.040337
868.972656	129.728195
866.214844	146.843033
863.455078	259.776031
860.693359	242.914215
857.933594	209.993820
855.169922	299.864960
852.408203	281.686279
849.644531	300.608917
846.878906	320.566406
844.113281	317.237518
841.347656	241.135422
838.580078	307.364655
835.810547	197.375168
833.041016	264.692444
830.271484	247.565506
827.500000	313.207123
824.728516	257.611298
821.955078	264.081879
819.181641	267.908142
816.408203	255.621445
813.630859	222.751099
810.855469	259.870575
808.078125	282.636780
805.298828	251.616776
802.521484	242.102234
799.740234	210.188202
796.958984	244.517548
794.177734	176.737701
791.394531	193.059509
788.611328	187.832886
785.826172	229.033310
783.041016	259.387909
780.255859	213.661255
777.466797	242.008179
774.679688	262.171204
771.890625	271.478760
769.099609	299.383789
766.308594	342.285034
763.517578	293.132446
760.724609	198.374466
757.931641	271.068329
755.136719	204.534546
752.341797	223.363968
749.544922	229.521698
746.748047	221.231308
743.949219	251.007462
741.150391	212.946747
738.349609	236.061890
735.548828	207.385696
732.748047	182.067749
729.945313	129.900925
727.140625	105.087898
724.335938	116.479660
721.531250	115.228607
718.724609	112.000244
715.917969	90.834229
713.109375	79.242661
710.300781	49.743988
707.490234	32.492527
704.679688	-6.176096
701.867188	15.238551
699.054688	-2.457802
696.240234	18.661959
693.425781	-9.008004
690.611328	18.950157
687.794922	3.482198
684.976563	-8.511764
682.158203	34.224724
679.339844	8.007901
676.519531	25.939163
673.697266	-31.159246
670.875000	-27.313150
668.052734	-29.596613
665.228516	-17.700401
662.404297	26.012569
659.578125	36.326859
656.751953	-6.963412
653.923828	5.412695
651.095703	42.610573
648.265625	116.069008
645.435547	121.083115
642.603516	70.054123
639.771484	60.640987
636.939453	53.270775
634.105469	41.808903
631.269531	55.256805
628.433594	20.724428
625.595703	70.804893
622.757813	35.196209
619.919922	61.343475
617.080078	75.531090
614.240234	161.910233
611.398438	167.053757
608.554688	117.304008
605.712891	59.970692
602.867188	37.063522
600.021484	38.000729
597.175781	47.840633
594.328125	40.288803
591.480469	52.012245
588.630859	10.383508
585.781250	11.469886
582.931641	-4.258201
580.078125	-18.550404
577.226563	3.367629
574.373047	-7.599985
571.517578	13.841734
568.662109	-8.374070
565.804688	-19.477493
562.947266	15.163527
560.089844	-10.998049
557.230469	11.565297
554.369141	18.108625
551.507813	-32.551853
548.646484	15.902493
