#Wave		#Intensity
1800.529297	145.850510
1798.058594	105.614731
1795.587891	78.895256
1793.115234	-49.983742
1790.642578	6.371140
1788.169922	-8.647174
1785.697266	-76.519127
1783.222656	-45.892593
1780.746094	-107.543289
1778.269531	-75.879120
1775.792969	-129.422562
1773.316406	-171.074493
1770.837891	-36.503693
1768.357422	35.697533
1765.878906	-71.248260
1763.398438	-72.433960
1760.916016	85.933708
1758.435547	-21.918724
1755.951172	-80.089806
1753.468750	-48.737751
1750.984375	9.709528
1748.498047	17.895350
1746.013672	115.954681
1743.527344	32.280392
1741.039063	62.241467
1738.550781	45.512547
1736.062500	117.120590
1733.574219	78.878777
1731.083984	11.812190
1728.591797	101.830254
1726.099609	83.960129
1723.607422	153.091934
1721.115234	172.320206
1718.621094	104.734886
1716.126953	136.096848
1713.630859	46.799389
1711.134766	98.354568
1708.636719	202.894333
1706.140625	181.023758
1703.640625	36.814175
1701.142578	141.148346
1698.642578	139.223145
1696.140625	70.032326
1693.640625	-40.346626
1691.138672	-53.544811
1688.634766	-10.362044
1686.130859	-94.722420
1683.626953	-102.610527
1681.121094	-78.775566
1678.615234	-147.327148
1676.109375	-207.768539
1673.601563	-167.706863
1671.093750	-199.841003
1668.583984	-152.216644
1666.074219	-89.265594
1663.564453	139.845886
1661.052734	190.946594
1658.541016	384.497650
1656.027344	527.177002
1653.513672	888.615112
1651.000000	1031.949829
1648.484375	1225.720703
1645.968750	975.125488
1643.453125	900.042419
1640.935547	825.265442
1638.417969	586.756897
1635.898438	513.886963
1633.378906	402.043396
1630.859375	374.822235
1628.337891	430.195892
1625.816406	393.424927
1623.292969	477.820496
1620.769531	523.508728
1618.246094	594.696228
1615.720703	614.454468
1613.195313	616.430542
1610.669922	572.103699
1608.142578	310.083496
1605.613281	367.428070
1603.085938	279.171570
1600.556641	277.735260
1598.025391	390.626190
1595.494141	289.208282
1592.962891	194.007813
1590.429688	56.835278
1587.896484	117.607193
1585.363281	237.611374
1582.828125	462.954407
1580.292969	537.270691
1577.755859	705.133667
1575.218750	692.669861
1572.681641	659.971252
1570.142578	542.306763
1567.603516	375.071289
1565.062500	357.281464
1562.521484	171.313202
1559.980469	242.479355
1557.437500	177.807343
1554.894531	73.371262
1552.349609	-16.005219
1549.804688	134.710327
1547.259766	164.341415
1544.712891	220.631683
1542.166016	88.484825
1539.619141	143.322479
1537.070313	121.167206
1534.519531	20.115662
1531.970703	78.462463
1529.417969	-5.582119
1526.867188	-107.002151
1524.314453	-252.151672
1521.761719	-9.980321
1519.207031	-166.634689
1516.652344	98.832771
1514.095703	411.878143
1511.539063	751.973450
1508.982422	830.844055
1506.423828	1031.252075
1503.865234	810.054871
1501.306641	479.879883
1498.746094	327.694336
1496.185547	111.215149
1493.623047	242.574432
1491.060547	128.717148
1488.496094	91.356407
1485.931641	67.265221
1483.367188	120.468025
1480.800781	117.918793
1478.234375	71.269463
1475.667969	24.173027
1473.099609	-80.596329
1470.531250	-187.778580
1467.960938	-234.408783
1465.390625	-111.123276
1462.818359	-260.645172
1460.246094	-139.671036
1457.673828	-199.467728
1455.099609	-55.790344
1452.525391	-22.238701
1449.951172	53.064709
1447.375000	-84.148514
1444.796875	49.443199
1442.220703	131.859161
1439.642578	90.717018
1437.062500	216.699738
1434.482422	118.740807
1431.902344	67.174973
1429.320313	361.921936
1426.738281	354.660614
1424.154297	433.166809
1421.570313	521.200195
1418.986328	558.043030
1416.400391	588.036865
1413.814453	828.742859
1411.226563	742.907410
1408.638672	868.656128
1406.050781	731.577209
1403.460938	897.316650
1400.871094	1094.490234
1398.279297	1257.721069
1395.687500	1469.637451
1393.095703	1281.678589
1390.501953	1385.488037
1387.908203	1275.917847
1385.312500	1200.722290
1382.716797	1244.262207
1380.119141	1177.249756
1377.521484	1192.454346
1374.923828	1091.423096
1372.324219	1472.079834
1369.724609	1614.705200
1367.125000	1863.238525
1364.523438	2028.072754
1361.919922	1944.706055
1359.318359	1877.357788
1356.712891	1892.978516
1354.109375	1506.789551
1351.503906	1304.053955
1348.896484	1175.688110
1346.291016	927.729492
1343.681641	742.678467
1341.074219	744.542297
1338.464844	708.928223
1335.853516	660.675964
1333.242188	643.661316
1330.630859	684.553406
1328.017578	849.068176
1325.404297	1011.330017
1322.789063	1073.253296
1320.173828	1087.297485
1317.558594	1029.717285
1314.941406	1121.352295
1312.324219	1113.787231
1309.705078	1086.056030
1307.085938	1043.882568
1304.466797	836.181030
1301.845703	756.689453
1299.224609	798.644348
1296.601563	716.977051
1293.978516	575.401123
1291.353516	622.595886
1288.728516	547.248657
1286.103516	547.677246
1283.476563	275.901306
1280.849609	425.910370
1278.220703	534.031372
1275.591797	498.016510
1272.962891	372.925323
1270.332031	262.024689
1267.701172	374.425995
1265.068359	270.062653
1262.435547	180.828094
1259.800781	156.821274
1257.166016	56.225330
1254.531250	59.570183
1251.894531	-109.021584
1249.257813	-95.314705
1246.619141	-38.224266
1243.980469	217.907349
1241.341797	208.790359
1238.701172	284.539032
1236.058594	323.468384
1233.417969	254.927231
1230.775391	254.264313
1228.130859	92.551491
1225.486328	63.703079
1222.839844	22.646793
1220.195313	51.254162
1217.546875	37.533428
1214.900391	-157.659332
1212.250000	-25.561642
1209.601563	-36.379719
1206.951172	93.753616
1204.298828	45.379791
1201.648438	120.047401
1198.994141	243.499756
1196.341797	354.690796
1193.685547	276.355377
1191.031250	405.317841
1188.375000	491.093414
1185.718750	396.896759
1183.060547	356.171021
1180.400391	333.274902
1177.742188	380.613220
1175.082031	282.849182
1172.419922	128.071030
1169.757813	152.040329
1167.095703	66.577240
1164.431641	58.743988
1161.767578	34.073872
1159.101563	59.844444
1156.435547	73.427437
1153.767578	-89.484062
1151.101563	-126.338081
1148.431641	-142.684006
1145.761719	-111.501442
1143.091797	-71.072678
1140.419922	-11.155846
1137.748047	60.766327
1135.076172	106.481514
1132.402344	87.830704
1129.726563	134.271133
1127.052734	102.406364
1124.375000	56.506855
1121.699219	127.715813
1119.019531	113.226059
1116.341797	-138.406601
1113.662109	-68.498734
1110.982422	-44.289520
1108.300781	-177.175110
1105.617188	-223.790054
1102.935547	-253.828751
1100.251953	-253.392548
1097.566406	-129.772964
1094.880859	-100.049698
1092.193359	29.578352
1089.507813	61.645355
1086.818359	38.851082
1084.128906	-10.980715
1081.439453	21.404871
1078.750000	25.800106
1076.058594	40.157898
1073.365234	-75.185493
1070.671875	12.720811
1067.978516	-3.167726
1065.283203	128.558350
1062.587891	89.093506
1059.890625	215.624847
1057.193359	281.839996
1054.494141	364.384430
1051.794922	406.045441
1049.095703	359.830688
1046.394531	400.981903
1043.693359	368.134705
1040.990234	264.121124
1038.287109	331.239990
1035.582031	343.747620
1032.876953	309.063171
1030.169922	225.387695
1027.462891	254.668884
1024.755859	302.085907
1022.046875	317.060272
1019.337891	306.979858
1016.626953	261.764801
1013.916016	133.698639
1011.203125	168.910934
1008.490234	277.309448
1005.777344	204.677750
1003.062500	250.203796
1000.347656	184.552826
997.630859	215.908386
994.914063	70.202415
992.195313	36.163857
989.476563	-11.763634
986.755859	33.547817
984.035156	13.695134
981.314453	12.004201
978.591797	-9.037078
975.867188	81.341843
973.142578	70.086212
970.417969	154.666611
967.691406	187.931107
964.964844	214.690186
962.238281	290.642670
959.509766	309.890015
956.779297	254.252365
954.048828	255.141830
951.318359	462.029327
948.585938	446.371338
945.853516	402.462219
943.119141	498.832764
940.384766	495.899597
937.648438	476.596008
934.912109	613.838562
932.175781	650.063477
929.437500	595.374878
926.697266	765.313477
923.957031	796.175476
921.216797	558.194519
918.474609	572.020630
915.732422	458.839905
912.988281	253.267059
910.244141	226.692795
907.500000	103.222878
904.753906	100.567245
902.005859	179.644913
899.257813	61.299213
896.509766	-20.561571
893.759766	38.172096
891.009766	-105.720390
888.257813	-45.704197
885.505859	-143.837952
882.751953	-193.765106
879.998047	-118.672447
877.242188	-91.306602
874.486328	-135.101761
871.730469	-83.791359
868.972656	49.893528
866.214844	-39.214863
863.455078	90.352791
860.693359	55.009777
857.933594	105.616615
855.169922	122.188499
852.408203	298.520966
849.644531	233.554581
846.878906	203.112640
844.113281	370.116791
841.347656	296.063263
838.580078	428.351074
835.810547	291.870270
833.041016	267.220825
830.271484	372.269440
827.500000	579.027588
824.728516	382.558502
821.955078	493.557343
819.181641	493.392456
816.408203	570.620972
813.630859	719.775940
810.855469	634.063538
808.078125	582.667358
805.298828	504.597687
802.521484	591.605469
799.740234	538.995789
796.958984	509.850586
794.177734	560.525696
791.394531	446.654388
788.611328	610.269287
785.826172	587.885925
783.041016	673.773621
780.255859	702.490845
777.466797	1028.742920
774.679688	1174.436646
771.890625	1476.310303
769.099609	1497.777710
766.308594	1172.185303
763.517578	831.642151
760.724609	516.274902
757.931641	521.961792
755.136719	344.947998
752.341797	353.273499
749.544922	333.930328
746.748047	285.152679
743.949219	241.663910
741.150391	346.670197
738.349609	289.655823
735.548828	185.451492
732.748047	252.716446
729.945313	176.777969
727.140625	156.708984
724.335938	115.208435
721.531250	-26.699144
718.724609	73.564415
715.917969	15.736013
713.109375	50.901024
710.300781	128.445679
707.490234	90.604408
704.679688	-22.644588
701.867188	-20.834553
699.054688	-79.347260
696.240234	-29.975569
693.425781	59.951077
690.611328	-16.536480
687.794922	-19.676327
684.976563	-63.533829
682.158203	-33.195690
679.339844	-103.591644
676.519531	-25.617624
673.697266	2.894078
670.875000	-138.862320
668.052734	-176.375641
665.228516	56.051594
662.404297	-39.453400
659.578125	68.816376
656.751953	-28.919790
653.923828	30.385519
651.095703	37.099899
648.265625	54.674419
645.435547	30.354931
642.603516	1.160794
639.771484	99.891235
636.939453	-40.904846
634.105469	-45.792751
631.269531	24.537220
628.433594	-45.937412
625.595703	-33.212013
622.757813	-35.601486
619.919922	134.658432
617.080078	548.470886
614.240234	1776.270020
611.398438	1747.541504
608.554688	911.190002
605.712891	259.320557
602.867188	-39.243832
600.021484	85.170181
597.175781	32.030674
594.328125	-130.245682
591.480469	66.174866
588.630859	96.573883
585.781250	5.657465
582.931641	72.145638
580.078125	13.003602
577.226563	-34.683388
574.373047	67.790192
571.517578	-117.640137
568.662109	-98.992149
565.804688	-93.576469
562.947266	-86.682251
560.089844	-3.510993
557.230469	89.565147
554.369141	138.411652
551.507813	-55.530025
548.646484	7.995351
