#Wave		#Intensity
1800.529297	44.140999
1798.058594	-9.337401
1795.587891	57.702541
1793.115234	102.411873
1790.642578	-13.152973
1788.169922	-3.928048
1785.697266	90.715034
1783.222656	-25.141779
1780.746094	-53.573181
1778.269531	-139.455353
1775.792969	-92.745644
1773.316406	-165.824600
1770.837891	18.153173
1768.357422	-38.229908
1765.878906	-9.410936
1763.398438	-77.192047
1760.916016	-10.691182
1758.435547	-20.680326
1755.951172	-50.982971
1753.468750	0.721708
1750.984375	80.195282
1748.498047	-22.013086
1746.013672	46.881599
1743.527344	124.460274
1741.039063	105.591743
1738.550781	93.454552
1736.062500	106.047096
1733.574219	11.312675
1731.083984	62.304173
1728.591797	96.948814
1726.099609	-19.631386
1723.607422	43.367741
1721.115234	4.147494
1718.621094	-17.410070
1716.126953	57.545223
1713.630859	36.330868
1711.134766	-37.057610
1708.636719	64.774323
1706.140625	31.667526
1703.640625	-26.684090
1701.142578	100.026955
1698.642578	32.115078
1696.140625	-27.114887
1693.640625	-15.907440
1691.138672	-139.358780
1688.634766	-139.679810
1686.130859	-201.937729
1683.626953	-1.949082
1681.121094	-137.317932
1678.615234	18.276474
1676.109375	-16.191816
1673.601563	165.586212
1671.093750	233.860046
1668.583984	275.060394
1666.074219	483.704498
1663.564453	978.673828
1661.052734	1593.120483
1658.541016	2491.515381
1656.027344	3716.204590
1653.513672	5274.851563
1651.000000	6478.872559
1648.484375	6879.094238
1645.968750	5996.242188
1643.453125	4704.195313
1640.935547	3549.327881
1638.417969	2375.312988
1635.898438	1560.780396
1633.378906	1129.161743
1630.859375	662.212402
1628.337891	519.469055
1625.816406	364.969086
1623.292969	295.447571
1620.769531	393.753387
1618.246094	475.277527
1615.720703	749.096863
1613.195313	826.636108
1610.669922	1132.873779
1608.142578	1215.346802
1605.613281	1288.999268
1603.085938	1529.173462
1600.556641	2135.519531
1598.025391	2084.255371
1595.494141	1872.830566
1592.962891	1339.126953
1590.429688	975.029541
1587.896484	1145.079956
1585.363281	1555.986084
1582.828125	2063.118896
1580.292969	3034.679688
1577.755859	3999.011963
1575.218750	4136.665039
1572.681641	3993.903809
1570.142578	3754.388672
1567.603516	3287.828369
1565.062500	2629.703369
1562.521484	2316.246582
1559.980469	1961.174805
1557.437500	1531.214966
1554.894531	1399.480713
1552.349609	1231.935059
1549.804688	1378.923340
1547.259766	1551.608887
1544.712891	1838.942505
1542.166016	2090.296875
1539.619141	2466.959961
1537.070313	2789.041260
1534.519531	2545.797363
1531.970703	2386.092529
1529.417969	2271.739014
1526.867188	2232.995605
1524.314453	2302.931396
1521.761719	2534.124268
1519.207031	2949.813965
1516.652344	3885.108154
1514.095703	4972.206055
1511.539063	5623.660645
1508.982422	6076.481445
1506.423828	5662.098145
1503.865234	4576.913574
1501.306641	3718.480225
1498.746094	2776.338867
1496.185547	1976.136475
1493.623047	1583.066528
1491.060547	1102.203247
1488.496094	1018.312561
1485.931641	532.840332
1483.367188	207.243057
1480.800781	-0.369557
1478.234375	41.841866
1475.667969	18.439444
1473.099609	34.182144
1470.531250	194.687866
1467.960938	-11.805912
1465.390625	158.011932
1462.818359	-167.756882
1460.246094	-163.851074
1457.673828	70.706627
1455.099609	127.410591
1452.525391	95.404457
1449.951172	124.631683
1447.375000	79.699066
1444.796875	176.151947
1442.220703	149.180298
1439.642578	-135.358505
1437.062500	-8.199862
1434.482422	-57.485073
1431.902344	-6.153506
1429.320313	129.291763
1426.738281	230.167542
1424.154297	200.098892
1421.570313	489.224396
1418.986328	451.797699
1416.400391	444.435364
1413.814453	139.768585
1411.226563	-84.657104
1408.638672	-116.346588
1406.050781	111.845337
1403.460938	219.843521
1400.871094	335.604706
1398.279297	536.948486
1395.687500	467.373566
1393.095703	741.776306
1390.501953	881.696533
1387.908203	1126.244141
1385.312500	1269.015991
1382.716797	1463.577148
1380.119141	1671.508911
1377.521484	1586.994873
1374.923828	2402.457275
1372.324219	3264.405029
1369.724609	4971.542480
1367.125000	6913.191895
1364.523438	8680.416992
1361.919922	9263.894531
1359.318359	7973.123047
1356.712891	6514.841309
1354.109375	5291.666992
1351.503906	3968.886475
1348.896484	2875.236572
1346.291016	2094.552979
1343.681641	1398.339111
1341.074219	1077.637573
1338.464844	909.763306
1335.853516	684.708374
1333.242188	745.825806
1330.630859	698.170532
1328.017578	780.092468
1325.404297	1213.455444
1322.789063	1922.682983
1320.173828	2441.923584
1317.558594	2744.697998
1314.941406	3180.417969
1312.324219	3507.341064
1309.705078	3387.972656
1307.085938	2995.747314
1304.466797	2376.535400
1301.845703	1940.973755
1299.224609	1521.730957
1296.601563	1194.748047
1293.978516	1048.215332
1291.353516	1189.184570
1288.728516	1205.698486
1286.103516	1227.788330
1283.476563	1134.099976
1280.849609	1142.718994
1278.220703	1363.447632
1275.591797	1287.483398
1272.962891	1115.831177
1270.332031	1007.595703
1267.701172	801.859802
1265.068359	698.309265
1262.435547	672.263794
1259.800781	475.964050
1257.166016	273.071167
1254.531250	173.187149
1251.894531	-1.350411
1249.257813	112.103615
1246.619141	26.226782
1243.980469	-0.240629
1241.341797	-165.447861
1238.701172	4.125604
1236.058594	-21.640144
1233.417969	-30.502762
1230.775391	115.062973
1228.130859	201.120056
1225.486328	502.661835
1222.839844	292.838867
1220.195313	423.707855
1217.546875	377.573456
1214.900391	675.584045
1212.250000	897.189575
1209.601563	947.563110
1206.951172	1088.974731
1204.298828	1268.746460
1201.648438	1598.584229
1198.994141	1791.122192
1196.341797	2259.365967
1193.685547	2340.798828
1191.031250	2536.548584
1188.375000	2591.522705
1185.718750	2775.752930
1183.060547	2913.925781
1180.400391	2999.530029
1177.742188	2503.646729
1175.082031	1810.557129
1172.419922	1369.571777
1169.757813	994.321716
1167.095703	655.759521
1164.431641	552.022888
1161.767578	249.292709
1159.101563	61.644058
1156.435547	98.244873
1153.767578	-1.497044
1151.101563	21.090054
1148.431641	24.056019
1145.761719	-144.605408
1143.091797	181.966293
1140.419922	159.703659
1137.748047	406.762909
1135.076172	571.691589
1132.402344	948.843750
1129.726563	1437.472656
1127.052734	1681.962524
1124.375000	1421.088623
1121.699219	1105.512085
1119.019531	692.495300
1116.341797	577.191284
1113.662109	221.288879
1110.982422	250.187744
1108.300781	175.056900
1105.617188	-125.620323
1102.935547	-62.308971
1100.251953	248.664368
1097.566406	206.995468
1094.880859	304.421906
1092.193359	588.075684
1089.507813	766.841553
1086.818359	617.563049
1084.128906	502.627747
1081.439453	500.683563
1078.750000	433.942902
1076.058594	470.829895
1073.365234	186.748093
1070.671875	163.537430
1067.978516	100.568100
1065.283203	228.858475
1062.587891	67.001259
1059.890625	117.576157
1057.193359	-4.539078
1054.494141	46.854229
1051.794922	33.590805
1049.095703	-35.048531
1046.394531	78.829018
1043.693359	-8.335382
1040.990234	-70.639275
1038.287109	-29.815266
1035.582031	105.741173
1032.876953	-25.789354
1030.169922	-165.601212
1027.462891	62.537174
1024.755859	71.590317
1022.046875	-89.519913
1019.337891	-42.011799
1016.626953	274.542419
1013.916016	177.520477
1011.203125	348.540649
1008.490234	261.443939
1005.777344	133.928009
1003.062500	274.208038
1000.347656	60.354149
997.630859	93.092476
994.914063	-129.964340
992.195313	-134.065567
989.476563	-81.503242
986.755859	-19.030285
984.035156	-82.096344
981.314453	-158.051773
978.591797	-116.104057
975.867188	62.833279
973.142578	111.744530
970.417969	-53.308449
967.691406	-56.707130
964.964844	19.218485
962.238281	91.325111
959.509766	109.419472
956.779297	4.222955
954.048828	27.567335
951.318359	67.194443
948.585938	81.161087
945.853516	86.813965
943.119141	20.397984
940.384766	179.734329
937.648438	489.050934
934.912109	849.946228
932.175781	1167.773926
929.437500	1130.665405
926.697266	1050.770630
923.957031	1148.979980
921.216797	901.844910
918.474609	748.347656
915.732422	377.918610
912.988281	356.195984
910.244141	279.111023
907.500000	108.630112
904.753906	248.335785
902.005859	238.375793
899.257813	237.489456
896.509766	71.752907
893.759766	14.805689
891.009766	52.077461
888.257813	150.899841
885.505859	24.450037
882.751953	-62.971916
879.998047	15.192453
877.242188	-77.431046
874.486328	-156.340271
871.730469	-84.244011
868.972656	-156.545929
866.214844	-45.425312
863.455078	-126.433807
860.693359	-42.155331
857.933594	-38.004356
855.169922	33.027073
852.408203	79.891502
849.644531	21.527205
846.878906	-17.665258
844.113281	24.436682
841.347656	-5.237810
838.580078	48.141655
835.810547	144.030869
833.041016	2.770703
830.271484	75.833450
827.500000	87.153900
824.728516	-1.817259
821.955078	61.359417
819.181641	-79.835358
816.408203	48.639130
813.630859	-69.323944
810.855469	49.931507
808.078125	-74.372078
805.298828	110.100563
802.521484	94.158951
799.740234	143.110840
796.958984	332.120514
794.177734	358.514740
791.394531	561.581787
788.611328	884.804138
785.826172	1221.648682
783.041016	1959.181274
780.255859	3602.808350
777.466797	5508.433105
774.679688	8177.700195
771.890625	8296.808594
769.099609	6195.775879
766.308594	3842.248047
763.517578	1847.418457
760.724609	767.290039
757.931641	597.399048
755.136719	283.656982
752.341797	83.615608
749.544922	26.540125
746.748047	42.844551
743.949219	195.625214
741.150391	26.598886
738.349609	58.078712
735.548828	-87.085579
732.748047	-75.476593
729.945313	-91.164902
727.140625	116.306229
724.335938	-27.736206
721.531250	-41.034271
718.724609	34.562561
715.917969	-5.062336
713.109375	-43.665199
710.300781	119.935448
707.490234	280.827820
704.679688	409.750763
701.867188	122.396065
699.054688	47.654167
696.240234	-85.500381
693.425781	-219.539536
690.611328	-152.857758
687.794922	-126.143204
684.976563	-113.753601
682.158203	12.398866
679.339844	12.829680
676.519531	144.569427
673.697266	193.870178
670.875000	214.609009
668.052734	270.304108
665.228516	447.318115
662.404297	496.942169
659.578125	479.208344
656.751953	121.982201
653.923828	-39.001095
651.095703	40.080963
648.265625	31.628416
645.435547	175.906921
642.603516	438.481384
639.771484	680.351746
636.939453	587.812683
634.105469	258.749969
631.269531	59.691212
628.433594	102.948830
625.595703	398.877289
622.757813	584.927246
619.919922	1721.750244
617.080078	6469.742188
614.240234	13358.086914
611.398438	10598.928711
608.554688	5491.866699
605.712891	3456.428223
602.867188	2054.375977
600.021484	904.595215
597.175781	291.361359
594.328125	77.952614
591.480469	97.237320
588.630859	95.813858
585.781250	147.384109
582.931641	60.946499
580.078125	-16.307640
577.226563	46.880825
574.373047	-3.095807
571.517578	-231.967606
568.662109	-18.269241
565.804688	-203.053726
562.947266	-151.040985
560.089844	-40.450390
557.230469	219.022018
554.369141	267.526764
551.507813	370.501282
548.646484	264.199951
