#Wave		#Intensity
1799.839844	-1051.341431
1797.369141	330.191101
1794.896484	-107.819061
1792.425781	485.228729
1789.953125	280.002655
1787.480469	147.645248
1785.005859	159.400055
1782.531250	-367.400543
1780.054688	552.781067
1777.578125	-904.770752
1775.101563	-164.283707
1772.623047	-247.556885
1770.144531	1716.578613
1767.666016	433.884399
1765.185547	1000.289734
1762.705078	-186.244339
1760.224609	408.106873
1757.742188	-76.744843
1755.259766	453.008484
1752.775391	638.682434
1750.291016	-108.405914
1747.804688	259.604401
1745.320313	454.768799
1742.832031	363.807953
1740.345703	26.996868
1737.857422	95.761665
1735.369141	-1529.532104
1732.878906	-890.071533
1730.388672	-308.296478
1727.896484	217.188675
1725.404297	-798.501709
1722.912109	-1184.967896
1720.419922	31.102488
1717.925781	-652.114624
1715.429688	651.407959
1712.933594	-637.577698
1710.437500	745.434204
1707.941406	759.225464
1705.443359	-295.627594
1702.945313	-478.186890
1700.445313	343.429962
1697.945313	-577.007690
1695.443359	14.903959
1692.943359	-390.928497
1690.439453	1270.760498
1687.937500	2105.972412
1685.433594	2402.609375
1682.927734	963.279724
1680.423828	4711.906738
1677.916016	2628.988525
1675.410156	3506.411621
1672.902344	1918.684937
1670.394531	5088.740234
1667.884766	6483.352539
1665.375000	8852.228516
1662.863281	12294.498047
1660.353516	15029.682617
1657.839844	20389.423828
1655.328125	26588.072266
1652.814453	33583.046875
1650.298828	38598.976563
1647.783203	39137.105469
1645.267578	36890.906250
1642.751953	32129.154297
1640.234375	26485.140625
1637.714844	23285.093750
1635.197266	22606.257813
1632.677734	19535.115234
1630.156250	19916.388672
1627.634766	17881.140625
1625.113281	18230.060547
1622.589844	17917.345703
1620.066406	18416.281250
1617.542969	19097.263672
1615.017578	20851.791016
1612.490234	21649.646484
1609.964844	22499.802734
1607.437500	23977.767578
1604.908203	24535.251953
1602.380859	25316.375000
1599.849609	26064.994141
1597.320313	27092.523438
1594.789063	27342.482422
1592.255859	27379.826172
1589.724609	25363.791016
1587.189453	26911.044922
1584.656250	28552.898438
1582.121094	30850.388672
1579.585938	33889.664063
1577.048828	39091.046875
1574.511719	39284.398438
1571.972656	39202.519531
1569.433594	37322.105469
1566.894531	35455.824219
1564.353516	34270.867188
1561.812500	32628.642578
1559.271484	29466.994141
1556.728516	29461.062500
1554.183594	29478.478516
1551.640625	29185.796875
1549.095703	30362.285156
1546.548828	30812.142578
1544.001953	31939.990234
1541.455078	31698.759766
1538.906250	33142.250000
1536.357422	32592.892578
1533.808594	30487.535156
1531.257813	28846.435547
1528.707031	29215.121094
1526.154297	27931.863281
1523.601563	27003.662109
1521.048828	26175.210938
1518.494141	28091.876953
1515.937500	30852.376953
1513.382813	34309.558594
1510.826172	34592.804688
1508.267578	35206.601563
1505.710938	37722.371094
1503.150391	32167.496094
1500.591797	27174.988281
1498.031250	22679.351563
1495.468750	18357.898438
1492.906250	17192.281250
1490.343750	12503.822266
1487.779297	10342.425781
1485.214844	10879.870117
1482.650391	9358.992188
1480.083984	7281.713379
1477.517578	7360.987305
1474.949219	5196.845703
1472.380859	4867.167480
1469.812500	5984.973633
1467.242188	4333.273926
1464.671875	3515.917725
1462.099609	3145.586670
1459.527344	2352.764404
1456.953125	2288.208008
1454.378906	1592.187134
1451.804688	1188.303711
1449.228516	1990.663086
1446.652344	744.956787
1444.076172	689.309509
1441.498047	-683.233154
1438.919922	-296.001129
1436.339844	-1565.124146
1433.759766	-381.094971
1431.177734	246.531082
1428.595703	-597.997314
1426.013672	730.372437
1423.429688	59.836868
1420.845703	3191.550049
1418.261719	1070.767334
1415.675781	-344.156403
1413.087891	490.365112
1410.501953	-338.356964
1407.912109	-109.554939
1405.324219	-1616.318604
1402.734375	-200.740295
1400.142578	-473.125061
1397.552734	-310.123535
1394.958984	2358.307617
1392.367188	2241.362549
1389.773438	2721.659668
1387.177734	4114.472656
1384.582031	4548.703125
1381.986328	5991.352539
1379.390625	6054.128418
1376.791016	7005.107422
1374.193359	8703.068359
1371.593750	12201.005859
1368.994141	18299.158203
1366.392578	22247.320313
1363.791016	27444.285156
1361.187500	28152.806641
1358.583984	22344.039063
1355.980469	20923.759766
1353.375000	16689.925781
1350.769531	12818.792969
1348.162109	8432.527344
1345.554688	5039.729004
1342.947266	2935.211182
1340.337891	2112.502686
1337.728516	3044.748291
1335.117188	301.845306
1332.505859	-81.934593
1329.892578	71.050629
1327.281250	-401.737793
1324.666016	2322.681152
1322.050781	705.374634
1319.435547	3540.835449
1316.820313	3572.738525
1314.203125	5778.904785
1311.583984	6124.387207
1308.964844	4279.137695
1306.345703	5646.688965
1303.726563	3645.414795
1301.105469	3190.884521
1298.482422	2317.539307
1295.859375	1135.892334
1293.236328	185.964920
1290.611328	460.300415
1287.986328	2192.057373
1285.359375	2117.594971
1282.732422	2759.911377
1280.105469	1700.840820
1277.476563	2834.687256
1274.847656	4326.947266
1272.216797	2744.118408
1269.585938	3950.011963
1266.953125	2841.069336
1264.322266	1265.010010
1261.687500	-47.930557
1259.052734	1332.349243
1256.417969	-136.914383
1253.783203	-453.823608
1251.146484	567.025330
1248.507813	-744.398926
1245.869141	2502.441650
1243.230469	-672.001160
1240.589844	433.039612
1237.949219	1906.468384
1235.306641	2214.812500
1232.664063	-726.943848
1230.021484	523.749451
1227.376953	3102.593018
1224.732422	827.318726
1222.085938	2327.044922
1219.439453	2381.712646
1216.792969	955.820007
1214.144531	735.503174
1211.494141	1644.301025
1208.843750	2533.075684
1206.193359	5553.767578
1203.542969	4015.515381
1200.888672	7474.412109
1198.236328	7304.233398
1195.582031	6990.088379
1192.927734	8876.009766
1190.271484	12132.594727
1187.615234	12297.466797
1184.957031	12463.266602
1182.298828	13126.736328
1179.638672	9641.625000
1176.978516	8413.139648
1174.318359	5593.962402
1171.656250	4578.298828
1168.994141	5014.083008
1166.330078	2184.876221
1163.666016	-137.486740
1161.001953	1024.257324
1158.335938	338.750305
1155.669922	-1322.477905
1153.001953	-1339.617432
1150.333984	-3273.738525
1147.664063	-919.832214
1144.994141	-1519.069580
1142.322266	-359.149994
1139.650391	-3212.939453
1136.978516	-669.346436
1134.304688	621.695313
1131.630859	1262.477173
1128.955078	1524.231079
1126.279297	2985.987305
1123.603516	2511.968750
1120.925781	550.107727
1118.246094	-447.554138
1115.568359	1173.318481
1112.886719	-443.802063
1110.207031	935.643188
1107.523438	68.470657
1104.841797	959.603760
1102.158203	408.323669
1099.472656	1512.460938
1096.789063	3041.939453
1094.101563	4717.171875
1091.416016	3734.495361
1088.726563	4906.981445
1086.039063	3632.352051
1083.349609	3052.618408
1080.658203	3880.010986
1077.966797	6243.355469
1075.275391	5438.229492
1072.582031	2603.744141
1069.888672	-250.678177
1067.193359	1803.607788
1064.498047	185.523926
1061.802734	1210.712158
1059.105469	1239.164185
1056.406250	761.180664
1053.707031	1722.708130
1051.007813	509.102753
1048.306641	1214.045532
1045.605469	1091.534790
1042.902344	1327.094971
1040.199219	447.277893
1037.496094	947.833313
1034.791016	-235.309143
1032.085938	-1112.240479
1029.378906	-1013.688782
1026.669922	-754.284729
1023.962891	884.038452
1021.253906	195.582687
1018.542969	178.860458
1015.832031	1220.484741
1013.121094	579.790161
1010.408203	944.852722
1007.693359	-1323.429443
1004.978516	-1085.013062
1002.263672	204.350662
999.546875	930.042969
996.830078	-1062.331055
994.113281	-1408.292603
991.394531	1510.502319
988.673828	-732.029419
985.953125	1517.264893
983.232422	-1238.539307
980.509766	1861.393799
977.787109	611.023499
975.062500	-22.224749
972.337891	2579.552002
969.611328	3518.430664
966.884766	3152.538818
964.158203	4466.618164
961.429688	4532.958008
958.701172	3481.740479
955.970703	3146.969727
953.240234	4416.333008
950.507813	4156.299316
947.775391	3505.748779
945.041016	5441.553711
942.306641	6007.723633
939.570313	6255.846680
936.833984	6680.563965
934.097656	5780.693359
931.359375	7769.629883
928.621094	7993.760254
925.880859	7114.353027
923.140625	6858.833008
920.398438	7270.874023
917.656250	6178.127930
914.912109	6436.455566
912.167969	6231.705566
909.423828	2785.890869
906.677734	5183.342285
903.931641	4512.220703
901.183594	5586.295410
898.433594	3040.764648
895.685547	3677.827637
892.935547	2545.556152
890.183594	3423.106201
887.431641	2488.806885
884.677734	647.684998
881.923828	154.742981
879.169922	1265.238037
876.414063	-1010.326660
873.656250	-862.465088
870.900391	-1633.579102
868.140625	265.883087
865.382813	-782.092957
862.621094	-231.150238
859.861328	616.954834
857.099609	2370.109863
854.335938	1621.581787
851.572266	662.200439
848.806641	-423.426422
846.041016	-933.721985
843.275391	953.265808
840.507813	2228.850342
837.740234	1771.919556
834.970703	654.081543
832.201172	2515.631836
829.429688	2115.442383
826.658203	1724.937134
823.884766	2408.096924
821.111328	3716.818604
818.337891	3142.905762
815.562500	3254.864502
812.785156	3597.300293
810.007813	4828.965820
807.230469	5140.220703
804.451172	6598.077148
801.671875	5818.331055
798.890625	4722.889648
796.109375	5700.277344
793.326172	5019.670410
790.542969	3848.291992
787.757813	6391.433105
784.972656	9223.358398
782.187500	12077.559570
779.400391	16732.734375
776.611328	20607.896484
773.822266	25035.962891
771.033203	28728.578125
768.242188	24961.771484
765.449219	17399.023438
762.658203	11806.748047
759.863281	7456.678223
757.070313	5870.546875
754.273438	4580.123535
751.478516	3507.764160
748.681641	2373.855225
745.882813	2646.942139
743.083984	2505.653320
740.283203	1199.062256
737.482422	1217.774414
734.681641	769.823608
731.878906	-553.715637
729.074219	410.965729
726.271484	604.787231
723.464844	-1109.065552
720.658203	-1137.696411
717.851563	1353.840576
715.042969	1340.149780
712.234375	429.136169
709.423828	-348.326721
706.613281	678.477905
703.800781	-560.120789
700.988281	11.310167
698.175781	249.619949
695.361328	-1243.180176
692.544922	-2148.968506
689.728516	-1044.760864
686.912109	-199.261826
684.093750	1026.916138
681.273438	799.246948
678.453125	2369.352051
675.632813	-481.656342
672.810547	1128.358765
669.988281	1089.468994
667.164063	1077.295044
664.339844	1027.613647
661.513672	2274.092285
658.687500	-163.350525
655.859375	3002.875000
653.031250	688.328918
650.201172	-1074.568970
647.371094	-989.554871
644.539063	-1479.157959
641.707031	-197.972275
638.875000	309.903748
636.041016	1795.849609
633.205078	2171.520020
630.369141	2143.049316
627.533203	812.324402
624.695313	-2110.059082
621.855469	1056.300293
619.015625	3613.247314
616.175781	15279.361328
613.333984	34463.730469
610.492188	39435.175781
607.648438	24590.716797
604.804688	11689.345703
601.958984	7036.023926
599.113281	2841.928467
596.265625	2906.472168
593.417969	3537.027588
590.568359	393.008514
587.718750	3007.558350
584.867188	2616.797607
582.015625	3091.750244
579.162109	1137.077271
576.308594	2195.671143
573.455078	717.107849
570.597656	-237.915115
567.742188	-396.803436
564.884766	-1005.925964
562.025391	-80.164047
559.166016	255.841553
556.306641	426.242126
553.445313	-757.097046
550.582031	308.728271
