#Wave		#Intensity
1796.204102	-298.582458
1795.239258	-77.105537
1794.274414	-113.666061
1793.309570	231.431458
1792.344727	460.208588
1791.378906	740.458740
1790.413086	107.913712
1789.447266	741.688171
1788.481445	197.625717
1787.515625	316.514191
1786.548828	-17.601051
1785.582031	-242.770889
1784.615234	738.133728
1783.648438	349.608459
1782.680664	-158.932083
1781.713867	74.967087
1780.746094	487.270966
1779.778320	581.453125
1778.809570	908.160217
1777.841797	443.906464
1776.873047	-111.541862
1775.904297	288.202301
1774.935547	262.479095
1773.966797	202.160522
1772.997070	73.853661
1772.028320	250.181366
1771.058594	692.345215
1770.087891	-14.410911
1769.118164	402.428467
1768.148438	-221.252625
1767.177734	-170.932068
1766.207031	-34.372585
1765.236328	83.238602
1764.264648	-438.671844
1763.293945	-197.243393
1762.322266	89.257080
1761.350586	8.303191
1760.378906	-260.521088
1759.406250	-87.037308
1758.434570	-142.342545
1757.461914	195.747818
1756.489258	100.218964
1755.515625	-57.627369
1754.542969	-188.043732
1753.569336	-122.349876
1752.595703	-308.203247
1751.622070	-297.939026
1750.648438	253.473648
1749.674805	-195.681381
1748.700195	315.305634
1747.725586	-214.739258
1746.750977	322.355713
1745.776367	-319.101746
1744.800781	-49.689728
1743.825195	68.054962
1742.849609	-144.456421
1741.874023	-74.567070
1740.898438	216.297318
1739.921875	-121.538544
1738.946289	312.621185
1737.969727	505.819122
1736.992188	57.957218
1736.015625	284.759613
1735.038086	151.027969
1734.061523	574.329895
1733.083008	155.620575
1732.105469	138.463928
1731.127930	214.411194
1730.149414	920.403870
1729.170898	701.122742
1728.192383	503.682770
1727.213867	610.433411
1726.234375	1041.417603
1725.255859	853.206726
1724.276367	595.110474
1723.296875	793.437988
1722.316406	1175.845581
1721.336914	1307.961670
1720.356445	1095.708740
1719.375977	836.553955
1718.395508	1053.587402
1717.415039	830.040039
1716.433594	980.800964
1715.452148	1069.265747
1714.470703	1026.971436
1713.489258	1001.099670
1712.507813	596.016479
1711.525391	1084.641846
1710.542969	943.013062
1709.560547	731.630310
1708.578125	389.713104
1707.595703	226.407242
1706.612305	1127.968628
1705.628906	394.385162
1704.645508	485.054443
1703.662109	880.546448
1702.677734	198.735077
1701.693359	532.924622
1700.708984	751.698669
1699.724609	-32.608677
1698.740234	135.267197
1697.754883	594.743286
1696.770508	-145.344757
1695.785156	384.392273
1694.798828	293.314972
1693.813477	814.796570
1692.827148	104.559814
1691.841797	105.367477
1690.855469	-135.233627
1689.868164	-213.270126
1688.881836	17.819942
1687.894531	-512.137573
1686.907227	-291.647888
1685.919922	217.343246
1684.932617	-430.023163
1683.944336	-408.159973
1682.957031	-236.325119
1681.968750	155.623505
1680.980469	64.883934
1679.991211	428.521301
1679.002930	118.493744
1678.013672	94.088074
1677.024414	737.900696
1676.035156	907.027649
1675.044922	568.890503
1674.055664	31.068380
1673.065430	-15.051628
1672.075195	571.226013
1671.083984	361.453461
1670.093750	-52.860390
1669.102539	122.129616
1668.111328	217.977570
1667.120117	-199.785370
1666.128906	102.204514
1665.136719	-46.667610
1664.145508	-226.521088
1663.153320	69.261147
1662.160156	564.393616
1661.167969	624.471558
1660.174805	-39.024971
1659.182617	262.363312
1658.188477	612.405396
1657.195313	397.568665
1656.202148	-6.055813
1655.208008	451.272491
1654.213867	58.355171
1653.219727	726.621094
1652.225586	745.268921
1651.230469	682.803711
1650.236328	997.722656
1649.241211	508.309570
1648.245117	796.247131
1647.250000	555.807190
1646.253906	1134.852905
1645.258789	760.635620
1644.262695	1205.673096
1643.265625	1369.837769
1642.269531	589.103760
1641.272461	1421.768188
1640.275391	1464.361450
1639.278320	1653.805420
1638.281250	1163.694336
1637.283203	1699.058105
1636.286133	1784.853394
1635.288086	1885.054565
1634.289063	2141.864990
1633.291016	1959.571655
1632.292969	2460.330078
1631.293945	2010.678589
1630.294922	2612.840088
1629.294922	2628.821533
1628.295898	2886.567627
1627.295898	3051.770996
1626.295898	2928.006592
1625.295898	3058.253418
1624.295898	2859.904541
1623.294922	2930.280518
1622.294922	3889.216309
1621.293945	2815.281006
1620.291992	3234.032715
1619.291016	3603.281250
1618.289063	4012.198975
1617.288086	3568.875977
1616.286133	3975.719971
1615.283203	3674.453613
1614.281250	5115.156738
1613.278320	4757.450195
1612.275391	4747.937988
1611.272461	5406.684082
1610.269531	5688.417480
1609.265625	6206.104492
1608.261719	6520.721680
1607.257813	5970.192383
1606.253906	6137.205078
1605.250000	6634.566895
1604.245117	6812.472656
1603.240234	6785.356445
1602.235352	6486.483887
1601.230469	6510.582031
1600.224609	6082.092285
1599.219727	6590.830078
1598.213867	6364.809570
1597.207031	6545.550293
1596.201172	6002.328613
1595.194336	6343.383789
1594.188477	5931.089844
1593.181641	6674.736328
1592.173828	5903.349121
1591.166992	5655.176758
1590.159180	5588.500000
1589.151367	4925.077148
1588.143555	5253.772949
1587.135742	5072.303223
1586.126953	5158.698730
1585.118164	5782.087402
1584.109375	5532.769531
1583.100586	5472.458984
1582.091797	5253.182129
1581.082031	4687.436035
1580.072266	5215.887207
1579.062500	5193.263184
1578.052734	5048.885742
1577.041992	4496.779785
1576.032227	4794.273438
1575.021484	3853.846191
1574.009766	4099.986816
1572.999023	3806.028076
1571.987305	3040.966064
1570.975586	3124.644287
1569.963867	2543.037354
1568.952148	2802.399414
1567.940430	3038.774658
1566.927734	2462.566895
1565.915039	2608.836182
1564.902344	1962.764893
1563.888672	1756.136353
1562.875977	1472.915894
1561.862305	1732.020386
1560.848633	1761.989868
1559.834961	1314.942139
1558.820313	1294.604858
1557.805664	846.612671
1556.791016	1178.722290
1555.776367	604.767883
1554.761719	10.942705
1553.746094	93.684532
1552.730469	774.256531
1551.714844	598.475098
1550.699219	13.000020
1549.683594	439.427887
1548.666992	-149.171082
1547.650391	-345.991760
1546.633789	152.396851
1545.617188	-10.895199
1544.599609	226.872284
1543.582031	221.884827
1542.564453	319.321167
1541.546875	-263.718658
1540.528320	283.050690
1539.510742	142.217911
1538.492188	707.583252
1537.473633	-133.081863
1536.454102	314.092102
1535.435547	-128.481323
1534.416016	630.582947
1533.396484	1066.655151
1532.376953	603.705200
1531.356445	767.977722
1530.335938	368.108276
1529.316406	412.309479
1528.294922	336.519684
1527.274414	489.837250
1526.252930	852.457703
1525.232422	478.418976
1524.210938	1140.150513
1523.188477	821.576782
1522.166992	578.455872
1521.144531	-79.029587
1520.122070	193.831085
1519.099609	933.789978
1518.077148	889.262634
1517.053711	851.702881
1516.030273	879.560974
1515.006836	722.196289
1513.983398	642.420715
1512.958984	1216.475464
1511.935547	1605.220337
1510.911133	1546.155273
1509.885742	1192.682373
1508.861328	904.647644
1507.835938	1556.444580
1506.811523	1328.433960
1505.786133	1325.930054
1504.759766	427.207397
1503.734375	1030.886841
1502.708008	1301.425781
1501.681641	935.786560
1500.655273	135.688782
1499.627930	164.838211
1498.601563	113.506218
1497.574219	-15.856285
1496.546875	-334.689575
1495.518555	-375.258881
1494.491211	-307.309357
1493.462891	-55.869221
1492.434570	-1064.231567
1491.406250	161.764725
1490.376953	-268.896362
1489.348633	284.910767
1488.319336	167.696960
1487.290039	-150.857285
1486.259766	-66.075371
1485.230469	247.676666
1484.200195	164.179520
1483.169922	805.019531
1482.139648	1357.870239
1481.108398	1344.469238
1480.077148	1240.943970
1479.045898	1660.646484
1478.014648	1883.803833
1476.983398	1753.634888
1475.951172	1933.976929
1474.918945	1840.737183
1473.886719	2011.961670
1472.854492	2510.156982
1471.821289	2211.579346
1470.789063	1878.378296
1469.755859	2108.286133
1468.721680	2103.390869
1467.688477	1839.661621
1466.654297	1953.142456
1465.620117	1747.632324
1464.585938	2542.565674
1463.551758	2101.290771
1462.516602	2467.604004
1461.481445	2690.634521
1460.446289	1964.643799
1459.411133	2197.245361
1458.375977	2676.107178
1457.339844	2766.506592
1456.303711	2824.300049
1455.267578	2241.600830
1454.230469	2659.540039
1453.194336	2014.302856
1452.157227	1901.024536
1451.120117	2208.853516
1450.082031	1586.267578
1449.044922	1535.890015
1448.006836	2263.745361
1446.968750	1526.603027
1445.930664	2238.996582
1444.891602	2163.134277
1443.852539	1941.837646
1442.813477	2169.491943
1441.774414	1817.919556
1440.735352	1766.591797
1439.695313	1895.602539
1438.655273	2085.020020
1437.615234	1676.463379
1436.575195	1931.599365
1435.534180	1744.523682
1434.493164	632.193054
1433.452148	1326.625488
1432.411133	1684.018677
1431.370117	853.453369
1430.328125	470.668274
1429.286133	788.586731
1428.244141	483.110046
1427.201172	801.571594
1426.159180	456.188293
1425.116211	1018.562134
1424.073242	100.881172
1423.029297	-45.277771
1421.986328	254.918289
1420.942383	130.541901
1419.898438	99.335617
1418.854492	199.365753
1417.809570	-189.266479
1416.764648	49.158241
1415.719727	-172.457367
1414.674805	899.680176
1413.629883	-5.736969
1412.583984	113.236717
1411.538086	598.704407
1410.492188	695.804138
1409.445313	538.122192
1408.399414	872.775818
1407.352539	593.385498
1406.305664	720.571716
1405.258789	1032.895630
1404.210938	1316.326172
1403.163086	1459.086792
1402.115234	1667.981689
1401.067383	2166.252441
1400.019531	2010.727295
1398.970703	2291.866455
1397.921875	3291.818604
1396.873047	2880.912842
1395.823242	3528.194580
1394.774414	3239.801514
1393.724609	3283.160889
1392.674805	4298.307129
1391.624023	3825.832764
1390.574219	4967.255371
1389.523438	4311.131836
1388.472656	4363.148926
1387.420898	4791.209961
1386.370117	5246.768555
1385.318359	5699.127930
1384.266602	5383.510254
1383.214844	5356.068848
1382.162109	5514.876953
1381.110352	5632.576660
1380.057617	5664.325195
1379.004883	5822.951660
1377.951172	6255.004883
1376.897461	6612.736816
1375.844727	6189.521973
1374.790039	6046.878906
1373.736328	5863.203613
1372.681641	6391.988281
1371.627930	5637.432617
1370.572266	5819.561523
1369.517578	6500.971191
1368.462891	6687.941895
1367.407227	5937.315430
1366.351563	5704.926758
1365.294922	6174.389160
1364.239258	6468.127930
1363.182617	6058.334473
1362.125977	6189.692871
1361.069336	5879.365723
1360.012695	5935.568848
1358.955078	5990.709961
1357.897461	6037.681641
1356.839844	5723.382324
1355.781250	5182.216797
1354.723633	5717.804199
1353.665039	5833.328613
1352.606445	5263.276855
1351.546875	5503.598633
1350.488281	5380.610840
1349.428711	5305.919922
1348.369141	4459.371094
1347.308594	4622.255371
1346.249023	5042.257324
1345.188477	4855.073242
1344.127930	4892.185547
1343.067383	4998.520996
1342.005859	5284.352051
1340.945313	5353.009766
1339.883789	5521.329590
1338.821289	5428.096191
1337.759766	5108.609863
1336.697266	5796.075195
1335.634766	5340.706543
1334.572266	5022.590332
1333.508789	5176.641602
1332.446289	5509.760254
1331.382813	6049.954590
1330.319336	5453.329102
1329.254883	6407.545410
1328.191406	5677.702148
1327.126953	6083.987305
1326.062500	6271.402832
1324.997070	5597.014160
1323.932617	5854.593262
1322.867188	6615.767578
1321.801758	6618.301758
1320.735352	7400.017578
1319.669922	7276.283203
1318.603516	7240.194824
1317.537109	7294.046875
1316.470703	7148.332520
1315.403320	7367.955078
1314.335938	7605.041016
1313.268555	7684.623535
1312.201172	8084.923340
1311.132813	7975.630371
1310.065430	7655.525879
1308.997070	7826.246094
1307.927734	7972.519043
1306.859375	8175.943848
1305.790039	7791.277832
1304.720703	8269.675781
1303.651367	8253.298828
1302.582031	8599.026367
1301.511719	8524.724609
1300.441406	7567.716309
1299.371094	7884.836426
1298.299805	7784.573730
1297.229492	8127.522949
1296.158203	7962.632813
1295.086914	7857.342285
1294.014648	7646.613770
1292.942383	7855.553711
1291.871094	8251.683594
1290.797852	9055.376953
1289.725586	8031.003418
1288.652344	8401.074219
1287.580078	7644.850098
1286.505859	8110.654785
1285.432617	7367.175781
1284.358398	7789.589844
1283.285156	7014.905762
1282.209961	6337.122070
1281.135742	6381.964844
1280.060547	5914.076172
1278.986328	5973.876465
1277.911133	6141.811035
1276.834961	5982.568848
1275.759766	5776.552246
1274.683594	4933.631836
1273.607422	4754.523926
1272.530273	4815.480469
1271.454102	5056.307617
1270.376953	4706.918945
1269.299805	4530.572754
1268.222656	4536.414551
1267.144531	4319.969238
1266.066406	4389.636719
1264.988281	4839.946289
1263.910156	4285.278320
1262.831055	3862.048096
1261.752930	4359.576172
1260.673828	4916.522949
1259.593750	3738.112549
1258.514648	4824.854492
1257.434570	4762.518066
1256.354492	3819.341064
1255.274414	3975.791504
1254.193359	4247.150879
1253.112305	3939.994873
1252.031250	4029.001953
1250.950195	3774.749268
1249.869141	3663.251465
1248.787109	3848.625977
1247.705078	3776.128418
1246.622070	3448.227539
1245.540039	4141.788086
1244.457031	3816.279541
1243.374023	4527.863770
1242.291016	3945.079590
1241.207031	4015.262695
1240.124023	4257.894043
1239.040039	4119.193848
1237.955078	3769.388184
1236.871094	3181.183350
1235.786133	4055.636230
1234.701172	4246.009277
1233.616211	4700.410645
1232.530273	4115.677734
1231.445313	4272.317871
1230.359375	4131.078613
1229.272461	4322.591797
1228.186523	4211.894043
1227.099609	4108.452637
1226.012695	4216.214355
1224.925781	3538.770264
1223.837891	3704.686279
1222.750000	4154.860840
1221.662109	2968.830078
1220.574219	3239.184326
1219.486328	2146.443359
1218.397461	2198.315430
1217.308594	2582.312744
1216.218750	2118.495361
1215.129883	1842.958008
1214.040039	1227.645264
1212.950195	1431.160156
1211.860352	783.271179
1210.769531	1033.774902
1209.678711	1147.888794
1208.587891	527.669739
1207.497070	-9.372570
1206.406250	97.982101
1205.314453	201.469772
1204.222656	-40.938759
1203.129883	-396.459686
1202.038086	-409.040894
1200.945313	96.517525
1199.852539	-110.450592
1198.759766	-113.711418
1197.666016	109.349365
1196.572266	406.077942
1195.478516	689.933716
1194.384766	1620.938232
1193.290039	1021.137512
1192.195313	1139.138672
1191.100586	2597.642090
1190.005859	1693.979980
1188.910156	2044.294678
1187.814453	2388.649170
1186.718750	2065.827881
1185.623047	2175.818359
1184.526367	2134.624023
1183.429688	1604.029419
1182.333008	1903.372314
1181.236328	2035.700806
1180.138672	1812.786499
1179.041016	1861.048950
1177.943359	1449.964966
1176.845703	1489.174683
1175.747070	867.483459
1174.648438	1969.820679
1173.549805	1753.942627
1172.450195	864.171814
1171.351563	653.201721
1170.251953	980.187256
1169.151367	791.987610
1168.051758	236.101227
1166.951172	792.758240
1165.850586	870.704590
1164.750000	384.317963
1163.649414	772.241272
1162.547852	498.739929
1161.446289	805.217834
1160.343750	251.746384
1159.242188	47.647099
1158.139648	39.116547
1157.037109	15.974432
1155.934570	917.485413
1154.831055	1122.294067
1153.727539	1052.879639
1152.624023	1438.192749
1151.520508	1479.402588
1150.416016	1621.023193
1149.312500	1529.266968
1148.207031	1740.833496
1147.102539	1428.350098
1145.997070	2025.242432
1144.892578	1701.681274
1143.786133	2886.157959
1142.680664	1916.426514
1141.574219	2260.715332
1140.467773	2941.336914
1139.361328	2603.502197
1138.254883	2543.655762
1137.147461	2865.076416
1136.040039	2708.539063
1134.932617	3110.690430
1133.824219	3992.505859
1132.716797	4499.723145
1131.608398	3691.396484
1130.499023	3472.986572
1129.390625	3675.598389
1128.281250	4173.283691
1127.171875	4483.243652
1126.062500	4219.652344
1124.952148	3813.653564
1123.841797	4458.491211
1122.731445	4397.682129
1121.621094	4133.867188
1120.509766	3844.269775
1119.398438	3793.269531
1118.287109	3727.529541
1117.175781	4110.689453
1116.063477	3757.888184
1114.951172	4151.625488
1113.838867	4986.969727
1112.725586	3732.802002
1111.613281	4316.718750
1110.500000	3811.954346
1109.386719	3305.965088
1108.272461	3547.734863
1107.158203	3001.146729
1106.043945	2788.485107
1104.929688	2085.127441
1103.814453	1903.262451
1102.700195	1735.488525
1101.584961	1235.837036
1100.468750	982.615479
1099.353516	1118.347656
1098.237305	569.723511
1097.121094	579.539673
1096.003906	723.736206
1094.886719	895.123840
1093.770508	629.995728
1092.652344	788.970459
1091.535156	-16.447117
1090.416992	-25.828671
1089.298828	14.180106
1088.180664	176.983841
1087.061523	-169.609390
1085.943359	-155.283646
1084.824219	402.242950
1083.704102	87.906113
1082.584961	-188.300476
1081.464844	33.905773
1080.344727	153.953537
1079.223633	340.830566
1078.103516	-38.846325
1076.982422	-18.364370
1075.861328	-119.952232
1074.739258	753.299438
1073.618164	-54.204460
1072.496094	827.530029
1071.373047	27.131754
1070.250977	116.474342
1069.127930	161.394928
1068.004883	70.937675
1066.881836	676.403259
1065.757813	481.473206
1064.633789	1190.395020
1063.509766	-88.147774
1062.385742	440.731354
1061.260742	455.486450
1060.135742	593.889343
1059.010742	833.701782
1057.885742	227.857285
1056.759766	-174.527054
1055.633789	-470.990570
1054.507813	-190.693100
1053.380859	323.364166
1052.254883	-372.202271
1051.127930	-16.227400
1050.000000	323.627960
1048.873047	156.960052
1047.745117	25.157993
1046.617188	449.030701
1045.488281	95.293152
1044.360352	533.062378
1043.231445	641.301819
1042.102539	589.964050
1040.972656	994.340454
1039.842773	1095.752686
1038.712891	480.082306
1037.583008	1029.375488
1036.453125	639.186523
1035.322266	1380.288696
1034.191406	1389.164673
1033.059570	85.227577
1031.928711	1452.535034
1030.796875	1489.357666
1029.665039	1206.214111
1028.532227	1425.812012
1027.400391	1395.780029
1026.267578	1514.203369
1025.133789	657.972900
1024.000977	1029.169312
1022.867188	542.428101
1021.733398	443.456757
1020.599609	876.885010
1019.464844	1023.595642
1018.330078	1015.409851
1017.195313	1223.201050
1016.060547	1170.819580
1014.924805	851.864502
1013.789063	1465.780640
1012.653320	738.810303
1011.516602	1393.699341
1010.380859	1670.091187
1009.244141	1384.273193
1008.106445	2200.978760
1006.969727	1958.414429
1005.832031	1097.331299
1004.694336	2867.875000
1003.555664	2947.161865
1002.417969	3276.511963
1001.279297	3055.395996
1000.139648	4059.480469
999.000977	2906.407715
997.861328	3094.212402
996.721680	3481.451660
995.582031	2838.228760
994.441406	2886.084717
993.300781	3334.152588
992.160156	2774.256104
991.019531	2640.837158
989.877930	3345.950195
988.736328	2862.634521
987.594727	3173.982422
986.452148	3381.202637
985.310547	3194.468262
984.166992	3078.201904
983.024414	2352.639160
981.881836	3573.154541
980.738281	3164.875977
979.593750	2822.763916
978.450195	3160.581787
977.305664	2215.002686
976.161133	2493.221191
975.016602	1962.853149
973.872070	2859.937012
972.726563	2457.183105
971.581055	1829.262451
970.434570	1739.064331
969.289063	2546.885742
968.142578	2216.893799
966.996094	2081.048828
965.848633	2069.730469
964.701172	2011.418701
963.553711	2652.627686
962.406250	2608.762939
961.257813	2567.858154
960.110352	2551.649902
958.960938	2475.511719
957.812500	2261.565674
956.663086	2334.572754
955.513672	2516.731445
954.364258	2461.452393
953.214844	2069.311279
952.064453	2323.370117
950.914063	2872.616455
949.762695	1574.612061
948.612305	2168.997070
947.460938	2080.638428
946.309570	1035.451660
945.157227	1876.865479
944.004883	1668.587646
942.852539	1640.864258
941.700195	1728.785522
940.547852	1949.583008
939.394531	1093.957397
938.241211	1358.187134
937.086914	1172.425781
935.932617	1234.009155
934.778320	1117.828125
933.624023	1182.055664
932.469727	1051.411743
931.314453	1635.713867
930.159180	1365.577515
929.002930	1325.375122
927.847656	1543.105591
926.691406	1361.635864
925.535156	1065.554688
924.377930	747.499756
923.220703	743.288391
922.063477	512.699890
920.906250	808.795288
919.748047	629.033264
918.589844	386.640381
917.431641	563.210083
916.273438	417.054840
915.114258	-45.162895
913.955078	156.387329
912.795898	35.550228
911.635742	517.902832
910.475586	-81.895027
909.315430	-84.857216
908.155273	173.932144
906.994141	-176.589615
905.833008	348.082001
904.671875	467.425873
903.509766	-703.549561
902.347656	-570.831848
901.185547	616.143982
900.023438	-97.041374
898.860352	57.668640
897.697266	191.269958
896.534180	1290.546265
895.370117	292.609955
894.207031	985.821777
893.042969	68.607346
891.877930	1759.056030
890.713867	1016.470642
889.548828	219.287094
888.382813	525.758423
887.217773	696.159668
886.051758	1616.898315
884.885742	1814.150635
883.719727	1450.713135
882.552734	1017.882202
881.385742	974.564697
880.218750	785.048279
879.050781	300.145996
877.883789	684.421570
876.714844	647.429016
875.546875	125.709106
874.377930	29.384481
873.209961	249.633713
872.040039	0.262380
870.871094	199.468353
869.701172	-142.979675
868.531250	92.831467
867.361328	-197.778961
866.190430	200.209137
865.019531	-566.000183
863.848633	-146.082520
862.676758	3.006527
861.505859	306.578033
860.333984	133.467163
859.161133	597.107483
857.989258	439.908264
856.816406	-91.431229
855.642578	181.464523
854.469727	-70.381767
853.295898	381.803986
852.122070	496.082184
850.948242	183.647461
849.773438	568.476135
848.598633	-47.731087
847.423828	-100.322906
846.248047	675.122620
845.073242	409.867676
843.897461	703.432861
842.720703	875.850891
841.544922	889.112732
840.368164	988.805603
839.190430	971.777893
838.013672	1254.772339
836.835938	1272.997437
835.658203	857.495483
834.480469	1737.486450
833.301758	1549.633179
832.123047	1534.749390
830.944336	1889.135620
829.764648	1588.422485
828.584961	1336.023315
827.405273	1480.139404
826.225586	1708.181274
825.044922	992.738586
823.864258	1101.812988
822.683594	786.559143
821.501953	871.494751
820.321289	372.065765
819.138672	782.597595
817.957031	113.795067
816.774414	691.476624
815.591797	468.136688
814.409180	-103.099403
813.225586	617.390137
812.042969	356.286011
810.858398	490.010498
809.674805	422.995483
808.490234	859.748962
807.305664	290.595032
806.121094	693.692139
804.935547	1585.108276
803.750000	857.627380
802.564453	135.628845
801.378906	405.794769
800.192383	9.219589
799.005859	524.317261
797.818359	22.382755
796.631836	-472.442200
795.444336	-473.645844
794.256836	-52.995552
793.068359	72.384132
791.879883	82.784111
790.691406	-162.137085
789.502930	801.722900
788.313477	634.546387
787.124023	812.890503
785.934570	769.243958
784.744141	545.565796
783.553711	666.932495
782.363281	296.454041
781.172852	854.114197
779.981445	1026.428589
778.790039	1127.032837
777.598633	930.220459
776.406250	1219.510376
775.213867	1534.951416
774.021484	1632.170776
772.829102	1191.834595
771.635742	1378.792236
770.442383	1049.085938
769.248047	1241.828125
768.054688	1743.764893
766.860352	2187.697266
765.665039	1470.919556
764.470703	1440.459839
763.275391	1712.440308
762.080078	2271.944092
760.883789	1935.881592
759.688477	1989.303467
758.492188	2896.034424
757.294922	1394.584473
756.098633	1524.644409
754.901367	1490.016724
753.704102	1941.587524
752.505859	1818.678467
751.307617	1337.777710
750.109375	2007.624512
748.911133	1398.819946
747.711914	1668.062866
746.512695	1288.479126
745.313477	1481.102051
744.114258	2311.890625
742.914063	1394.157837
741.713867	1266.125488
740.512695	1742.595215
739.311523	1282.553101
738.110352	1530.442871
736.909180	1843.299316
735.707031	2210.645996
734.504883	1776.964111
733.302734	2151.916748
732.100586	1738.627319
730.897461	1674.010742
729.694336	1879.236206
728.490234	1708.557129
727.287109	1063.091675
726.083008	1231.441772
724.877930	978.796570
723.673828	692.146118
722.468750	499.582916
721.263672	421.829163
720.057617	774.853699
718.851563	267.891235
717.645508	-311.756500
716.439453	6.139016
715.232422	137.689545
714.025391	35.800011
712.818359	261.787109
711.611328	-396.838043
710.403320	315.939941
709.194336	-1.691670
707.986328	79.287483
706.777344	84.897667
705.568359	-316.035309
704.359375	481.008118
703.149414	217.231506
701.939453	-149.236908
700.729492	133.010620
699.518555	-443.985107
698.308594	-270.863190
697.096680	226.416550
695.885742	559.067444
694.673828	197.335342
