#Wave		#Intensity
1800.529297	385339.218750
1798.058594	386385.531250
1795.587891	386615.062500
1793.115234	388616.406250
1790.642578	386884.218750
1788.169922	388539.875000
1785.697266	388254.937500
1783.222656	386845.218750
1780.746094	386646.375000
1778.269531	387036.875000
1775.792969	388148.906250
1773.316406	388905.437500
1770.837891	389347.000000
1768.357422	391429.437500
1765.878906	392347.843750
1763.398438	391646.500000
1760.916016	391888.812500
1758.435547	391906.218750
1755.951172	391525.406250
1753.468750	392804.062500
1750.984375	395528.218750
1748.498047	394172.562500
1746.013672	395689.531250
1743.527344	396514.562500
1741.039063	397453.187500
1738.550781	397960.843750
1736.062500	399104.468750
1733.574219	398037.875000
1731.083984	398815.718750
1728.591797	397656.781250
1726.099609	400664.593750
1723.607422	400660.562500
1721.115234	401416.468750
1718.621094	401432.062500
1716.126953	401809.875000
1713.630859	402197.406250
1711.134766	400730.281250
1708.636719	404558.156250
1706.140625	403449.968750
1703.640625	402351.343750
1701.142578	404538.187500
1698.642578	405108.125000
1696.140625	405631.875000
1693.640625	405127.937500
1691.138672	407797.718750
1688.634766	403864.156250
1686.130859	404992.062500
1683.626953	405893.562500
1681.121094	409657.968750
1678.615234	409109.687500
1676.109375	409460.625000
1673.601563	414649.375000
1671.093750	415953.312500
1668.583984	421275.812500
1666.074219	425353.906250
1663.564453	435028.406250
1661.052734	448204.125000
1658.541016	470805.562500
1656.027344	504386.906250
1653.513672	548127.937500
1651.000000	582697.625000
1648.484375	593147.500000
1645.968750	563530.625000
1643.453125	527456.500000
1640.935547	493784.875000
1638.417969	467194.968750
1635.898438	448037.218750
1633.378906	441459.687500
1630.859375	431775.968750
1628.337891	428513.906250
1625.816406	423244.437500
1623.292969	423813.687500
1620.769531	425821.250000
1618.246094	426248.187500
1615.720703	432574.125000
1613.195313	435415.062500
1610.669922	439862.656250
1608.142578	443903.562500
1605.613281	446197.500000
1603.085938	451130.968750
1600.556641	459168.156250
1598.025391	466157.250000
1595.494141	462813.125000
1592.962891	456431.906250
1590.429688	452601.968750
1587.896484	456677.875000
1585.363281	464678.718750
1582.828125	478700.218750
1580.292969	501479.625000
1577.755859	525639.187500
1575.218750	536815.562500
1572.681641	533648.812500
1570.142578	526983.312500
1567.603516	514676.875000
1565.062500	500782.968750
1562.521484	484509.281250
1559.980469	478303.343750
1557.437500	473720.968750
1554.894531	472668.781250
1552.349609	473318.218750
1549.804688	478050.312500
1547.259766	481579.250000
1544.712891	487868.406250
1542.166016	491026.468750
1539.619141	497872.687500
1537.070313	500246.000000
1534.519531	500356.812500
1531.970703	497603.750000
1529.417969	494975.281250
1526.867188	491369.625000
1524.314453	490255.531250
1521.761719	499774.531250
1519.207031	513355.906250
1516.652344	537520.875000
1514.095703	566409.062500
1511.539063	595666.250000
1508.982422	616733.250000
1506.423828	616288.562500
1503.865234	600625.437500
1501.306641	573504.187500
1498.746094	545799.312500
1496.185547	517132.218750
1493.623047	497478.687500
1491.060547	485099.062500
1488.496094	474161.562500
1485.931641	465861.187500
1483.367188	462058.437500
1480.800781	460394.843750
1478.234375	462658.406250
1475.667969	462424.093750
1473.099609	462028.906250
1470.531250	461096.937500
1467.960938	460198.375000
1465.390625	458894.437500
1462.818359	452731.906250
1460.246094	449841.312500
1457.673828	452570.375000
1455.099609	451672.562500
1452.525391	454554.000000
1449.951172	453873.531250
1447.375000	451433.187500
1444.796875	456204.875000
1442.220703	454729.250000
1439.642578	451802.968750
1437.062500	457105.750000
1434.482422	459979.843750
1431.902344	459480.000000
1429.320313	462566.562500
1426.738281	463902.000000
1424.154297	468093.687500
1421.570313	474646.531250
1418.986328	474308.281250
1416.400391	473143.906250
1413.814453	469032.156250
1411.226563	464164.437500
1408.638672	463126.187500
1406.050781	462230.843750
1403.460938	462270.656250
1400.871094	464938.500000
1398.279297	466426.437500
1395.687500	469957.750000
1393.095703	472439.968750
1390.501953	478766.781250
1387.908203	481815.687500
1385.312500	489393.468750
1382.716797	497951.625000
1380.119141	499255.000000
1377.521484	503785.187500
1374.923828	508851.062500
1372.324219	525488.687500
1369.724609	554891.312500
1367.125000	600819.437500
1364.523438	643358.562500
1361.919922	658874.687500
1359.318359	640160.250000
1356.712891	608915.812500
1354.109375	582801.125000
1351.503906	559768.250000
1348.896484	537114.500000
1346.291016	522236.593750
1343.681641	503692.812500
1341.074219	494555.468750
1338.464844	489907.468750
1335.853516	485405.375000
1333.242188	486660.031250
1330.630859	486727.937500
1328.017578	491375.937500
1325.404297	499521.281250
1322.789063	508855.875000
1320.173828	518232.187500
1317.558594	529118.937500
1314.941406	543878.250000
1312.324219	555795.562500
1309.705078	552540.437500
1307.085938	548571.437500
1304.466797	532245.187500
1301.845703	521616.125000
1299.224609	509042.718750
1296.601563	502706.593750
1293.978516	495160.281250
1291.353516	496616.031250
1288.728516	496860.375000
1286.103516	492657.843750
1283.476563	491106.625000
1280.849609	491694.312500
1278.220703	491501.843750
1275.591797	493021.812500
1272.962891	488941.156250
1270.332031	489417.718750
1267.701172	485487.218750
1265.068359	483070.687500
1262.435547	481453.750000
1259.800781	478979.343750
1257.166016	477631.000000
1254.531250	474946.593750
1251.894531	473966.656250
1249.257813	471638.937500
1246.619141	472283.062500
1243.980469	471643.375000
1241.341797	471548.312500
1238.701172	474824.468750
1236.058594	474513.375000
1233.417969	473829.187500
1230.775391	475805.906250
1228.130859	477346.187500
1225.486328	483190.187500
1222.839844	481051.437500
1220.195313	478954.437500
1217.546875	479521.656250
1214.900391	479764.968750
1212.250000	479842.593750
1209.601563	485707.250000
1206.951172	491284.437500
1204.298828	498858.531250
1201.648438	507164.843750
1198.994141	510584.187500
1196.341797	519251.156250
1193.685547	520551.968750
1191.031250	529592.812500
1188.375000	536624.625000
1185.718750	542732.562500
1183.060547	543298.937500
1180.400391	543997.812500
1177.742188	535264.312500
1175.082031	516072.125000
1172.419922	501934.187500
1169.757813	490428.781250
1167.095703	484572.781250
1164.431641	478261.406250
1161.767578	475706.843750
1159.101563	473976.812500
1156.435547	472457.031250
1153.767578	468642.312500
1151.101563	469430.281250
1148.431641	470347.343750
1145.761719	470102.531250
1143.091797	473757.218750
1140.419922	476930.437500
1137.748047	481207.687500
1135.076172	484141.625000
1132.402344	492224.500000
1129.726563	497223.468750
1127.052734	500764.531250
1124.375000	497781.218750
1121.699219	491401.125000
1119.019531	489173.781250
1116.341797	483202.718750
1113.662109	477497.375000
1110.982422	477232.562500
1108.300781	475562.812500
1105.617188	471514.687500
1102.935547	473309.218750
1100.251953	472092.937500
1097.566406	476865.000000
1094.880859	477991.125000
1092.193359	481510.593750
1089.507813	484514.406250
1086.818359	484397.437500
1084.128906	483736.875000
1081.439453	480257.875000
1078.750000	475621.468750
1076.058594	475706.906250
1073.365234	473135.218750
1070.671875	471141.031250
1067.978516	471423.531250
1065.283203	471392.531250
1062.587891	468957.187500
1059.890625	469255.531250
1057.193359	469491.781250
1054.494141	466863.468750
1051.794922	468094.593750
1049.095703	466389.500000
1046.394531	467710.156250
1043.693359	467468.687500
1040.990234	465174.625000
1038.287109	463942.000000
1035.582031	462971.562500
1032.876953	464440.843750
1030.169922	464264.812500
1027.462891	465055.562500
1024.755859	466871.937500
1022.046875	466222.531250
1019.337891	466298.531250
1016.626953	466774.937500
1013.916016	468081.218750
1011.203125	467014.156250
1008.490234	467792.531250
1005.777344	464331.375000
1003.062500	464488.062500
1000.347656	462641.968750
997.630859	464517.593750
994.914063	461925.687500
992.195313	462926.281250
989.476563	461970.062500
986.755859	460907.281250
984.035156	462345.375000
981.314453	460798.093750
978.591797	461901.281250
975.867188	461276.593750
973.142578	461650.312500
970.417969	460939.125000
967.691406	460275.781250
964.964844	460525.031250
962.238281	459220.375000
959.509766	458975.937500
956.779297	459097.375000
954.048828	457020.843750
951.318359	460032.687500
948.585938	460052.281250
945.853516	459046.781250
943.119141	459565.625000
940.384766	461183.968750
937.648438	464082.750000
934.912109	471389.125000
932.175781	471046.125000
929.437500	473457.687500
926.697266	470570.562500
923.957031	470123.406250
921.216797	465790.937500
918.474609	464475.406250
915.732422	461304.906250
912.988281	460062.250000
910.244141	458187.031250
907.500000	457167.343750
904.753906	457827.500000
902.005859	456443.125000
899.257813	453992.125000
896.509766	453139.625000
893.759766	452270.375000
891.009766	452092.343750
888.257813	452565.906250
885.505859	451145.593750
882.751953	448825.343750
879.998047	448510.000000
877.242188	446522.687500
874.486328	445793.406250
871.730469	445229.812500
868.972656	443969.406250
866.214844	443028.375000
863.455078	443149.031250
860.693359	444619.031250
857.933594	444217.718750
855.169922	444298.875000
852.408203	444687.218750
849.644531	442551.781250
846.878906	438960.500000
844.113281	441026.312500
841.347656	438978.500000
838.580078	440058.531250
835.810547	439231.843750
833.041016	437545.125000
830.271484	438694.437500
827.500000	439007.250000
824.728516	434713.375000
821.955078	436196.312500
819.181641	434840.562500
816.408203	436791.687500
813.630859	434106.906250
810.855469	435681.062500
808.078125	435856.437500
805.298828	434639.718750
802.521484	436008.562500
799.740234	434865.843750
796.958984	435711.562500
794.177734	436465.343750
791.394531	437244.531250
788.611328	443498.375000
785.826172	450500.125000
783.041016	459901.031250
780.255859	482054.187500
777.466797	510555.281250
774.679688	531413.750000
771.890625	533989.062500
769.099609	517963.343750
766.308594	493844.250000
763.517578	463488.562500
760.724609	441781.500000
757.931641	432419.812500
755.136719	426109.656250
752.341797	423621.218750
749.544922	420590.250000
746.748047	418940.937500
743.949219	419286.812500
741.150391	417544.562500
738.349609	414234.656250
735.548828	412895.062500
732.748047	412317.000000
729.945313	411395.437500
727.140625	412508.187500
724.335938	410650.343750
721.531250	408901.031250
718.724609	407193.593750
715.917969	404962.093750
713.109375	404809.468750
710.300781	406168.187500
707.490234	406324.375000
704.679688	405263.281250
701.867188	401969.562500
699.054688	401612.437500
696.240234	397251.093750
693.425781	397759.031250
690.611328	396226.312500
687.794922	395513.187500
684.976563	394850.843750
682.158203	396084.843750
679.339844	394507.593750
676.519531	396483.281250
673.697266	394324.250000
670.875000	392152.437500
668.052734	389857.625000
665.228516	392458.906250
662.404297	396474.906250
659.578125	400655.625000
656.751953	395590.343750
653.923828	389400.250000
651.095703	387396.531250
648.265625	384778.031250
645.435547	387307.656250
642.603516	388768.750000
639.771484	391962.531250
636.939453	392531.593750
634.105469	387537.937500
631.269531	383066.531250
628.433594	380416.343750
625.595703	381835.156250
622.757813	383015.218750
619.919922	396503.281250
617.080078	429843.062500
614.240234	542819.187500
611.398438	580192.312500
608.554688	479549.562500
605.712891	412036.656250
602.867188	390386.062500
600.021484	380368.593750
597.175781	372850.968750
594.328125	371025.343750
591.480469	369271.656250
588.630859	367921.125000
585.781250	366269.093750
582.931641	366126.437500
580.078125	364044.656250
577.226563	362944.343750
574.373047	361945.906250
571.517578	359957.218750
568.662109	362346.062500
565.804688	358185.375000
562.947266	355126.156250
560.089844	356096.781250
557.230469	356724.500000
554.369141	356428.125000
551.507813	353148.750000
548.646484	351021.562500
