#Wave		#Intensity
1800.529297	104.742920
1798.058594	70.511230
1795.587891	6.604270
1793.115234	-69.314796
1790.642578	-56.735897
1788.169922	-60.617615
1785.697266	-4.546467
1783.222656	1.725791
1780.746094	-40.689537
1778.269531	42.335258
1775.792969	30.702360
1773.316406	82.517845
1770.837891	-36.061172
1768.357422	6.923576
1765.878906	50.039474
1763.398438	44.582664
1760.916016	105.495392
1758.435547	151.970581
1755.951172	134.510056
1753.468750	233.217361
1750.984375	271.275543
1748.498047	213.365189
1746.013672	289.676453
1743.527344	332.642426
1741.039063	320.062653
1738.550781	324.864471
1736.062500	343.886505
1733.574219	454.013550
1731.083984	429.087219
1728.591797	428.088104
1726.099609	417.968170
1723.607422	411.692810
1721.115234	493.138214
1718.621094	497.477020
1716.126953	414.828857
1713.630859	469.795990
1711.134766	481.769196
1708.636719	524.617310
1706.140625	419.985596
1703.640625	410.186249
1701.142578	378.739136
1698.642578	439.250458
1696.140625	348.783020
1693.640625	388.367523
1691.138672	335.026855
1688.634766	242.685989
1686.130859	252.771713
1683.626953	218.180344
1681.121094	177.807831
1678.615234	145.752365
1676.109375	107.248268
1673.601563	79.277824
1671.093750	98.752792
1668.583984	3.956736
1666.074219	-14.323316
1663.564453	-57.181217
1661.052734	-56.087742
1658.541016	-26.750504
1656.027344	-87.031319
1653.513672	47.656471
1651.000000	108.886002
1648.484375	54.231270
1645.968750	97.765244
1643.453125	57.464699
1640.935547	63.056786
1638.417969	30.617731
1635.898438	41.309158
1633.378906	126.878418
1630.859375	138.182419
1628.337891	187.936935
1625.816406	95.566536
1623.292969	180.073471
1620.769531	101.983551
1618.246094	113.080986
1615.720703	187.683105
1613.195313	97.127357
1610.669922	157.022659
1608.142578	40.143700
1605.613281	-35.599449
1603.085938	60.853584
1600.556641	-55.573669
1598.025391	-25.439516
1595.494141	-35.719830
1592.962891	-48.966434
1590.429688	-46.488964
1587.896484	-12.514755
1585.363281	33.301098
1582.828125	90.945717
1580.292969	122.153114
1577.755859	135.774918
1575.218750	118.119659
1572.681641	272.313751
1570.142578	207.816620
1567.603516	147.423767
1565.062500	245.989380
1562.521484	114.339577
1559.980469	248.368774
1557.437500	266.846161
1554.894531	250.149109
1552.349609	370.543243
1549.804688	468.397247
1547.259766	382.307190
1544.712891	331.449493
1542.166016	158.374115
1539.619141	84.018234
1537.070313	34.984566
1534.519531	4.378020
1531.970703	-7.871523
1529.417969	-39.871723
1526.867188	52.745049
1524.314453	81.564980
1521.761719	27.085140
1519.207031	39.477123
1516.652344	-47.063900
1514.095703	23.754560
1511.539063	63.739517
1508.982422	197.498169
1506.423828	259.426880
1503.865234	267.034943
1501.306641	182.375000
1498.746094	235.981720
1496.185547	85.428360
1493.623047	91.452248
1491.060547	-11.424999
1488.496094	-101.721184
1485.931641	-62.032135
1483.367188	112.319435
1480.800781	-26.200024
1478.234375	156.125427
1475.667969	29.508097
1473.099609	-8.279571
1470.531250	32.908016
1467.960938	48.321865
1465.390625	-3.748004
1462.818359	105.271881
1460.246094	169.921417
1457.673828	141.801620
1455.099609	340.245331
1452.525391	405.173737
1449.951172	415.946289
1447.375000	339.729614
1444.796875	268.356842
1442.220703	240.366592
1439.642578	257.661835
1437.062500	329.813171
1434.482422	427.750977
1431.902344	358.447693
1429.320313	413.334839
1426.738281	369.498474
1424.154297	447.763763
1421.570313	564.124329
1418.986328	577.864868
1416.400391	565.157349
1413.814453	552.931885
1411.226563	544.073486
1408.638672	652.067200
1406.050781	730.579224
1403.460938	929.644287
1400.871094	1255.838745
1398.279297	1486.101563
1395.687500	1471.576416
1393.095703	1490.990112
1390.501953	1346.538696
1387.908203	1260.057251
1385.312500	1286.194946
1382.716797	1271.346924
1380.119141	1142.684448
1377.521484	1184.044556
1374.923828	1152.809570
1372.324219	1087.383423
1369.724609	1055.781006
1367.125000	1131.695923
1364.523438	1145.631958
1361.919922	1093.822021
1359.318359	1162.833984
1356.712891	1119.275146
1354.109375	1128.601196
1351.503906	989.151001
1348.896484	888.326843
1346.291016	861.419556
1343.681641	820.566833
1341.074219	947.117554
1338.464844	877.401489
1335.853516	943.575317
1333.242188	986.267334
1330.630859	1100.849243
1328.017578	1054.743774
1325.404297	1002.453064
1322.789063	1005.919067
1320.173828	1030.825073
1317.558594	1023.871155
1314.941406	1115.477173
1312.324219	1088.681030
1309.705078	965.494568
1307.085938	895.278870
1304.466797	861.852844
1301.845703	877.562378
1299.224609	832.206360
1296.601563	750.557617
1293.978516	693.418579
1291.353516	657.000061
1288.728516	623.279907
1286.103516	529.692566
1283.476563	448.371704
1280.849609	422.922363
1278.220703	376.579620
1275.591797	336.850372
1272.962891	271.560730
1270.332031	265.004486
1267.701172	268.888763
1265.068359	269.041412
1262.435547	208.745941
1259.800781	211.928329
1257.166016	156.633484
1254.531250	56.164440
1251.894531	-16.685678
1249.257813	40.045956
1246.619141	-38.971542
1243.980469	-0.711233
1241.341797	26.445810
1238.701172	132.119492
1236.058594	109.798187
1233.417969	34.058922
1230.775391	91.520638
1228.130859	109.717194
1225.486328	116.940445
1222.839844	129.220810
1220.195313	43.047840
1217.546875	23.161327
1214.900391	-1.038993
1212.250000	-86.861885
1209.601563	-51.945877
1206.951172	-127.495407
1204.298828	-103.019966
1201.648438	-18.058777
1198.994141	32.563309
1196.341797	21.643900
1193.685547	46.826019
1191.031250	0.209559
1188.375000	36.559036
1185.718750	11.466613
1183.060547	7.441787
1180.400391	7.604995
1177.742188	102.743500
1175.082031	-12.338293
1172.419922	6.879926
1169.757813	52.684967
1167.095703	93.251328
1164.431641	155.697845
1161.767578	199.798615
1159.101563	357.296936
1156.435547	400.187469
1153.767578	216.546295
1151.101563	215.341949
1148.431641	46.545273
1145.761719	-9.906825
1143.091797	3.904482
1140.419922	-49.114113
1137.748047	-3.060278
1135.076172	8.741257
1132.402344	27.296753
1129.726563	29.307049
1127.052734	15.667491
1124.375000	-7.065975
1121.699219	-12.910386
1119.019531	-75.308731
1116.341797	8.356930
1113.662109	-45.453239
1110.982422	26.239244
1108.300781	-29.279222
1105.617188	-23.457397
1102.935547	-51.998226
1100.251953	16.881710
1097.566406	15.196036
1094.880859	57.013290
1092.193359	24.571573
1089.507813	104.128487
1086.818359	66.808159
1084.128906	147.869019
1081.439453	177.770920
1078.750000	213.914566
1076.058594	322.894470
1073.365234	402.886505
1070.671875	506.578064
1067.978516	511.924164
1065.283203	501.241364
1062.587891	482.820770
1059.890625	556.385376
1057.193359	574.120422
1054.494141	656.955200
1051.794922	621.218933
1049.095703	697.553345
1046.394531	794.576111
1043.693359	767.543762
1040.990234	731.731812
1038.287109	822.509949
1035.582031	806.806824
1032.876953	924.930969
1030.169922	793.048096
1027.462891	728.721741
1024.755859	688.654907
1022.046875	671.900452
1019.337891	718.850830
1016.626953	620.899902
1013.916016	674.809387
1011.203125	680.285339
1008.490234	720.879761
1005.777344	805.727539
1003.062500	853.152100
1000.347656	782.489014
997.630859	724.930237
994.914063	727.190125
992.195313	634.398865
989.476563	639.869690
986.755859	569.571167
984.035156	627.660095
981.314453	539.549866
978.591797	571.532410
975.867188	669.552490
973.142578	678.170044
970.417969	659.610962
967.691406	603.860657
964.964844	628.759399
962.238281	597.313843
959.509766	626.393860
956.779297	594.621826
954.048828	575.942017
951.318359	690.698242
948.585938	673.560669
945.853516	687.762329
943.119141	777.915100
940.384766	739.104126
937.648438	795.381470
934.912109	829.300964
932.175781	724.472107
929.437500	733.841614
926.697266	715.509888
923.957031	604.103027
921.216797	563.260193
918.474609	534.807739
915.732422	436.149506
912.988281	360.853607
910.244141	278.992065
907.500000	206.018250
904.753906	232.615036
902.005859	181.961060
899.257813	192.807861
896.509766	198.092987
893.759766	113.625290
891.009766	49.972794
888.257813	9.851420
885.505859	17.704531
882.751953	25.573683
879.998047	9.992365
877.242188	-38.938004
874.486328	-38.021858
871.730469	-1.728849
868.972656	-107.048141
866.214844	-75.789360
863.455078	-50.635605
860.693359	-25.237530
857.933594	-45.541103
855.169922	-70.931396
852.408203	21.209589
849.644531	5.553972
846.878906	-23.203074
844.113281	18.712927
841.347656	53.855747
838.580078	63.354652
835.810547	32.866600
833.041016	23.600552
830.271484	104.768929
827.500000	158.585526
824.728516	71.916214
821.955078	138.554535
819.181641	139.332321
816.408203	164.965881
813.630859	146.361954
810.855469	191.202011
808.078125	178.398041
805.298828	119.667465
802.521484	111.827492
799.740234	52.727135
796.958984	54.344349
794.177734	1.156032
791.394531	82.020279
788.611328	38.292809
785.826172	22.111876
783.041016	37.020573
780.255859	35.620140
777.466797	88.501503
774.679688	94.676727
771.890625	102.398163
769.099609	133.965332
766.308594	91.195618
763.517578	113.281868
760.724609	108.314636
757.931641	8.555367
755.136719	48.423298
752.341797	117.302200
749.544922	58.430088
746.748047	123.813042
743.949219	144.237686
741.150391	62.778976
738.349609	37.810146
735.548828	50.567871
732.748047	26.332441
729.945313	-8.229650
727.140625	-46.924465
724.335938	-93.343048
721.531250	-66.746559
718.724609	-24.903059
715.917969	-70.762505
713.109375	16.517500
710.300781	-45.112381
707.490234	-47.300243
704.679688	-104.421494
701.867188	-62.368946
699.054688	-147.021423
696.240234	-45.012077
693.425781	-56.468552
690.611328	37.122734
687.794922	58.818134
684.976563	-21.394369
682.158203	46.570438
679.339844	39.967720
676.519531	81.575150
673.697266	60.104393
670.875000	33.815907
668.052734	-5.248699
665.228516	-1.540460
662.404297	-25.647932
659.578125	22.019356
656.751953	33.900009
653.923828	104.248360
651.095703	61.330093
648.265625	171.025131
645.435547	150.780624
642.603516	126.492279
639.771484	214.215088
636.939453	88.667397
634.105469	56.703415
631.269531	13.733171
628.433594	10.713243
625.595703	114.343269
622.757813	88.522438
619.919922	151.826401
617.080078	173.565216
614.240234	247.621964
611.398438	385.395905
608.554688	197.951401
605.712891	52.592899
602.867188	45.655975
600.021484	56.317188
597.175781	17.287495
594.328125	-30.181965
591.480469	-16.915335
588.630859	-41.617573
585.781250	-46.473927
582.931641	-14.785602
580.078125	-59.952705
577.226563	-24.667042
574.373047	7.383345
571.517578	-21.212929
568.662109	35.371914
565.804688	22.942371
562.947266	-34.742962
560.089844	-47.741791
557.230469	-44.639641
554.369141	-7.850739
551.507813	53.199730
548.646484	63.870174
